Application:, Trigno Discover (2.0.1.3)
Date/Time:, 04-Nov-25 15:19:06
Collection Length (seconds):, 2.997
 Hamstrings right (85641), , , , , , , ,  Rectus Femoris right (85844), , , , , , , ,  Gastrocnemius left (85904), , , , , , , , TibilaisÂ Anterior right (85650), , , , , , , ,  Hamstrings left (85586), , , , , , , , TibilaisÂ Anterior left (85605), , , , , , , ,  Rectus Femoris left (85878), , , , , , , ,  Gastrocnemius right (85873)
sensor mode: 49, , , , , , , , sensor mode: 49, , , , , , , , sensor mode: 49, , , , , , , , sensor mode: 49, , , , , , , , sensor mode: 49, , , , , , , , sensor mode: 49, , , , , , , , sensor mode: 49, , , , , , , , sensor mode: 49
EMG 1 Time Series (s), EMG 1 (mV), GYRO X Time Series (s), GYRO X (deg/s), GYRO Y Time Series (s), GYRO Y (deg/s), GYRO Z Time Series (s), GYRO Z (deg/s), EMG 1 Time Series (s), EMG 1 (mV), GYRO X Time Series (s), GYRO X (deg/s), GYRO Y Time Series (s), GYRO Y (deg/s), GYRO Z Time Series (s), GYRO Z (deg/s), EMG 1 Time Series (s), EMG 1 (mV), GYRO X Time Series (s), GYRO X (deg/s), GYRO Y Time Series (s), GYRO Y (deg/s), GYRO Z Time Series (s), GYRO Z (deg/s), EMG 1 Time Series (s), EMG 1 (mV), GYRO X Time Series (s), GYRO X (deg/s), GYRO Y Time Series (s), GYRO Y (deg/s), GYRO Z Time Series (s), GYRO Z (deg/s), EMG 1 Time Series (s), EMG 1 (mV), GYRO X Time Series (s), GYRO X (deg/s), GYRO Y Time Series (s), GYRO Y (deg/s), GYRO Z Time Series (s), GYRO Z (deg/s), EMG 1 Time Series (s), EMG 1 (mV), GYRO X Time Series (s), GYRO X (deg/s), GYRO Y Time Series (s), GYRO Y (deg/s), GYRO Z Time Series (s), GYRO Z (deg/s), EMG 1 Time Series (s), EMG 1 (mV), GYRO X Time Series (s), GYRO X (deg/s), GYRO Y Time Series (s), GYRO Y (deg/s), GYRO Z Time Series (s), GYRO Z (deg/s), EMG 1 Time Series (s), EMG 1 (mV), GYRO X Time Series (s), GYRO X (deg/s), GYRO Y Time Series (s), GYRO Y (deg/s), GYRO Z Time Series (s), GYRO Z (deg/s)
, 1925.9259 Hz, , 74.0741 Hz, , 74.0741 Hz, , 74.0741 Hz, , 1925.9259 Hz, , 74.0741 Hz, , 74.0741 Hz, , 74.0741 Hz, , 1925.9259 Hz, , 74.0741 Hz, , 74.0741 Hz, , 74.0741 Hz, , 1925.9259 Hz, , 74.0741 Hz, , 74.0741 Hz, , 74.0741 Hz, , 1925.9259 Hz, , 74.0741 Hz, , 74.0741 Hz, , 74.0741 Hz, , 1925.9259 Hz, , 74.0741 Hz, , 74.0741 Hz, , 74.0741 Hz, , 1925.9259 Hz, , 74.0741 Hz, , 74.0741 Hz, , 74.0741 Hz, , 1925.9259 Hz, , 74.0741 Hz, , 74.0741 Hz, , 74.0741 Hz
, 0.0005192307692307692 s, , 0.0135 s, , 0.0135 s, , 0.0135 s, , 0.0005192307692307692 s, , 0.0135 s, , 0.0135 s, , 0.0135 s, , 0.0005192307692307692 s, , 0.0135 s, , 0.0135 s, , 0.0135 s, , 0.0005192307692307692 s, , 0.0135 s, , 0.0135 s, , 0.0135 s, , 0.0005192307692307692 s, , 0.0135 s, , 0.0135 s, , 0.0135 s, , 0.0005192307692307692 s, , 0.0135 s, , 0.0135 s, , 0.0135 s, , 0.0005192307692307692 s, , 0.0135 s, , 0.0135 s, , 0.0135 s, , 0.0005192307692307692 s, , 0.0135 s, , 0.0135 s, , 0.0135 s, , Type, Name, Label, Time (s), , Pair, E1, E2, T1, T2, V1, V2, Sensor, Channel, Units, Delta T, RMS, PKPK, Peak Value, TPK, Integral
0, -0.1290761, 0, 182.9268341, 0, -10.1829271, 0, 125.4268341, 0, 0.063447, 0, -58.2317085, 0, -10.1219511, 0, -163.4756165, 0, 0.1720455, 0, 135.5487823, 0, 288.4146423, 0, 108.9634171, 0, 0.0068818, 0, -168.0487823, 0, -39.6951218, 0, -533.475647, 0, 0.1367971, 0, 87.3780518, 0, 80.4268341, 0, 57.9268303, 0, 0.0381018, 0, -206.8902435, 0, 340, 0, 232.7439117, 0, -0.0505226, 0, -35.0609779, 0, 3.9024391, 0, 69.7560959, 0, 0.0102388, 0, 551.0975952, 0, 57.0121956, 0, 99.2073212, , , , , , , , , , , , , , , , , , , , , , 
0.0005192, -0.1351186, 0.0135, -43.4146347, 0.0135, -58.4146347, 0.0135, 110.6097565, 0.0005192, 0.0602579, 0.0135, 9.4512196, 0.0135, -45.5487823, 0.0135, -132.5, 0.0005192, 0.2076295, 0.0135, -241.4634247, 0.0135, 786.8292847, 0.0135, 252.5, 0.0005192, 0.0166171, 0.0135, -135, 0.0135, -168.5975647, 0.0135, -402.5, 0.0005192, 0.1300832, 0.0135, 59.6951218, 0.0135, 301.7683105, 0.0135, 57.9268303, 0.0005192, 0.0814069, 0.0135, -194.5731812, 0.0135, 115.18293, 0.0135, -39.2682953, 0.0005192, -0.06009, 0.0135, -440.243927, 0.0135, -153.1707306, 0.0135, 175.6097565, 0.0005192, 0.0045319, 0.0135, 383.3536682, 0.0135, -1.5853659, 0.0135, 89.9390259, , , , , , , , , , , , , , , , , , , , , , 
0.0010385, -0.1378042, 0.027, -251.2804871, 0.027, -199.8780518, 0.027, 167.9268341, 0.0010385, 0.0632792, 0.027, 180.0609741, 0.027, -163.6585388, 0.027, -70.9756088, 0.0010385, 0.2069581, 0.027, -44.5731735, 0.027, -894.512207, 0.027, 94.8170776, 0.0010385, 0.0186313, 0.027, -53.841465, 0.027, -62.1341476, 0.027, -280.3658752, 0.0010385, 0.1237049, 0.027, -47.8658562, 0.027, -42.3170738, 0.027, -156.8902435, 0.0010385, 0.0894636, 0.027, -199.8170776, 0.027, -239.512207, 0.027, -108.0487823, 0.0010385, -0.0616007, 0.027, 339.5731812, 0.027, 251.8902435, 0.027, 75.6707306, 0.0010385, -0.0001678, 0.027, 179.9390259, 0.027, 3.7195122, 0.027, 123.0487823, , , , , , , , , , , , , , , , , , , , , , 
0.0015577, -0.1411612, 0.0405, -290.6097717, 0.0405, -197.86586, 0.0405, 155.7926941, 0.0015577, 0.0683146, 0.0405, 316.1585388, 0.0405, -249.3292694, 0.0405, -46.2195129, 0.0015577, 0.1841306, 0.0405, 388.7195129, 0.0405, -247.9878082, 0.0405, 9.0243902, 0.0015577, 0.0152743, 0.0405, 76.2804871, 0.0405, 55.8536606, 0.0405, -146.7682953, 0.0015577, 0.1153124, 0.0405, 97.3170776, 0.0405, 27.560976, 0.0405, 39.5731735, 0.0015577, 0.0746929, 0.0405, -4.2073174, 0.0405, -243.4756165, 0.0405, 212.9268341, 0.0015577, -0.0592508, 0.0405, 19.0853672, 0.0405, 424.2683105, 0.0405, -17.1341476, 0.0015577, -0.0008392, 0.0405, 61.0975609, 0.0405, 220.9756165, 0.0405, 99.8170776, , , , , , , , , , , , , , , , , , , , , , 
0.0020769, -0.1482109, 0.054, -437.6219482, 0.054, -256.2195129, 0.054, 96.4024429, 0.0020769, 0.0674754, 0.054, 406.7073364, 0.054, -268.3536682, 0.054, 10.9756098, 0.0020769, 0.1586175, 0.054, 30.5487804, 0.054, 83.2926865, 0.054, 273.6585388, 0.0020769, 0.0129244, 0.054, 196.0365906, 0.054, 49.5731735, 0.054, 61.9512215, 0.0020769, 0.1022202, 0.054, -177.5, 0.054, -344.0853882, 0.054, -97.1951218, 0.0020769, 0.0669718, 0.054, -285.6707458, 0.054, 29.4512196, 0.054, 107.0731735, 0.0020769, -0.0585794, 0.054, -72.6219559, 0.054, -254.2073212, 0.054, -31.5853672, 0.0020769, -0.0018463, 0.054, -233.4756165, 0.054, 303.2926941, 0.054, 60.4878044, , , , , , , , , , , , , , , , , , , , , , 
0.0025962, -0.1498894, 0.0675, -546.0975952, 0.0675, -252.5, 0.0675, 46.0365868, 0.0025962, 0.0619364, 0.0675, 506.4634399, 0.0675, -251.0365906, 0.0675, 61.9512215, 0.0025962, 0.13579, 0.0675, -79.8780518, 0.0675, 314.5731812, 0.0675, 315.2438965, 0.0025962, 0.0092317, 0.0675, 323.3536682, 0.0675, -6.4024391, 0.0675, 266.3414612, 0.0025962, 0.082414, 0.0675, -121.0975647, 0.0675, -317.1341553, 0.0675, -334.7561035, 0.0025962, 0.0683146, 0.0675, -266.7683105, 0.0675, 396.1585388, 0.0675, 24.1463413, 0.0025962, -0.0609293, 0.0675, 81.8902435, 0.0675, -865.3658447, 0.0675, -120.5487823, 0.0025962, -0.0035248, 0.0675, -520.2438965, 0.0675, 163.7804871, 0.0675, 103.6585388, , , , , , , , , , , , , , , , , , , , , , 
0.0031154, -0.1461967, 0.081, -557.8658447, 0.081, -168.9634247, 0.081, 77.5, 0.0031154, 0.0575723, 0.081, 621.4634399, 0.081, -205.6097565, 0.081, 79.3292694, 0.0031154, 0.1082628, 0.081, 22.0731716, 0.081, 163.5975647, 0.081, 64.0243912, 0.0031154, 0.0068818, 0.081, 475.0609741, 0.081, -14.9390249, 0.081, 447.5, 0.0031154, 0.0595865, 0.081, 86.1585388, 0.081, -340.5487976, 0.081, -172.9878082, 0.0031154, 0.0663005, 0.081, -79.146347, 0.081, 173.4756165, 0.081, 55.9146347, 0.0031154, -0.0622721, 0.081, -98.5365906, 0.081, -455.1829224, 0.081, -39.8780479, 0.0031154, -0.0041962, 0.081, -604.8780518, 0.081, 90.18293, 0.081, 112.9878082, , , , , , , , , , , , , , , , , , , , , , 
0.0036346, -0.1428397, 0.0945, -671.5244141, 0.0945, -129.6951294, 0.0945, 202.012207, 0.0036346, 0.0562295, 0.0945, 691.9512329, 0.0945, -139.3292694, 0.0945, 68.2926865, 0.0036346, 0.0777142, 0.0945, 7.8048782, 0.0945, -218.5975647, 0.0945, 57.1951218, 0.0036346, 0.0199741, 0.0945, 624.2683105, 0.0945, -13.9634151, 0.0945, 606.5244141, 0.0036346, 0.0394446, 0.0945, 299.0853577, 0.0945, -331.8902588, 0.0945, -166.2804871, 0.0036346, 0.0525368, 0.0945, -26.2195129, 0.0945, -233.2926941, 0.0945, -5.3658538, 0.0036346, -0.0602579, 0.0945, -224.7561035, 0.0945, -49.0243912, 0.0945, 181.646347, 0.0036346, -0.0008392, 0.0945, -771.5244141, 0.0945, 7.6219516, 0.0945, 130.36586, , , , , , , , , , , , , , , , , , , , , , 
0.0041538, -0.142504, 0.108, -771.8292847, 0.108, -103.7804871, 0.108, 298.0487976, 0.0041538, 0.0580758, 0.108, 716.4024658, 0.108, -51.2195129, 0.108, 63.1097565, 0.0041538, 0.0558938, 0.108, 89.6341476, 0.108, -269.7561035, 0.108, 33.0487823, 0.0041538, 0.036759, 0.108, 757.4390259, 0.108, 13.2317076, 0.108, 786.0366211, 0.0041538, 0.0139315, 0.108, 138.0487823, 0.108, -85.3658524, 0.108, -122.9268341, 0.0041538, 0.03122, 0.108, -43.9024391, 0.108, -308.7804871, 0.108, 45.7317085, 0.0041538, -0.0542153, 0.108, -265.4268494, 0.108, -183.0487823, 0.108, 238.7804871, 0.0041538, 0.0025177, 0.108, -976.7073364, 0.108, -87.8658524, 0.108, 155.1829376, , , , , , , , , , , , , , , , , , , , , , 
0.0046731, -0.1393149, 0.1215, -632.6219482, 0.1215, -5.3048782, 0.1215, 328.1707458, 0.0046731, 0.0602579, 0.1215, 702.6219482, 0.1215, 33.6585388, 0.1215, 81.646347, 0.0046731, 0.0428016, 0.1215, 34.0243912, 0.1215, -154.8170776, 0.1215, 20.4268303, 0.0046731, 0.0287022, 0.1215, 854.6341553, 0.1215, 12.2560978, 0.1215, 970.5488281, 0.0046731, -0.0223239, 0.1215, 115.36586, 0.1215, 81.8902435, 0.1215, -11.0365858, 0.0046731, 0.0119173, 0.1215, -22.9268303, 0.1215, -153.5975647, 0.1215, 14.1463413, 0.0046731, -0.043473, 0.1215, 66.7682953, 0.1215, 125.4268341, 0.1215, 70.9146347, 0.0046731, -0.0025177, 0.1215, -1228.1707764, 0.1215, -246.3414764, 0.1215, 221.7073212, , , , , , , , , , , , , , , , , , , , , , 
0.0051923, -0.1339437, 0.135, -454.5731812, 0.135, 180.9756165, 0.135, 261.7073364, 0.0051923, 0.0565652, 0.135, 633.8414917, 0.135, 129.0853729, 0.135, 145.6097565, 0.0051923, 0.033402, 0.135, -18.1707325, 0.135, -45.0609779, 0.135, 21.5853672, 0.0051923, 0.0062104, 0.135, 887.0731812, 0.135, 29.7560978, 0.135, 1122.8658447, 0.0051923, -0.051194, 0.135, 82.3170776, 0.135, 64.6341476, 0.135, 11.7073174, 0.0051923, -0.0053712, 0.135, -6.4634147, 0.135, -26.0365868, 0.135, -12.1341467, 0.0051923, -0.0271916, 0.135, -6.3414636, 0.135, 53.1097565, 0.135, -37.0731697, 0.0051923, -0.012253, 0.135, -1399.7561035, 0.135, -250.36586, 0.135, 368.4146423, , , , , , , , , , , , , , , , , , , , , , 
0.0057115, -0.1320974, 0.1485, -398.7195129, 0.1485, 319.5731812, 0.1485, 138.5365906, 0.0057115, 0.0468299, 0.1485, 630.9146729, 0.1485, 187.2561035, 0.1485, 177.0121918, 0.0057115, 0.0219883, 0.1485, -7.8048782, 0.1485, -1.3414634, 0.1485, 4.0853658, 0.0057115, -0.0001678, 0.1485, 883.9024658, 0.1485, 31.341465, 0.1485, 1172.7438965, 0.0057115, -0.0587472, 0.1485, 41.7682953, 0.1485, 32.0731697, 0.1485, -3.9024391, 0.0057115, -0.0243381, 0.1485, 2.3170731, 0.1485, -7.6829271, 0.1485, 5.4878049, 0.0057115, -0.0092317, 0.1485, -37.9268303, 0.1485, -59.4512215, 0.1485, -11.7073174, 0.0057115, -0.0149386, 0.1485, -1508.5976562, 0.1485, -1.402439, 0.1485, 449.6951294, , , , , , , , , , , , , , , , , , , , , , 
0.0062308, -0.1310903, 0.162, -358.8414612, 0.162, 441.1585388, 0.162, 39.2682953, 0.0062308, 0.0340734, 0.162, 494.0244141, 0.162, 321.3414612, 0.162, 223.3536682, 0.0062308, 0.0011749, 0.162, 0.3048781, 0.162, -5.8536587, 0.162, -6.7682929, 0.0062308, 0.0226596, 0.162, 853.7805176, 0.162, 141.3414612, 0.162, 1234.3293457, 0.0062308, -0.0565652, 0.162, 47.4390259, 0.162, 7.8048782, 0.162, -43.0487823, 0.0062308, -0.0381018, 0.162, 12.8048782, 0.162, -17.5, 0.162, 13.0487804, 0.0062308, 0.0025177, 0.162, -49.5121956, 0.162, -29.4512196, 0.162, 15.060976, 0.0062308, -0.0083925, 0.162, -1580.1829834, 0.162, 302.6829224, 0.162, 287.9878235, , , , , , , , , , , , , , , , , , , , , , 
0.00675, -0.1257191, 0.1755, -194.7561035, 0.1755, 422.1951294, 0.1755, -56.7682953, 0.00675, 0.0186313, 0.1755, 170.9146423, 0.1755, 517.7438965, 0.1755, 225.0609741, 0.00675, -0.0293736, 0.1755, 0.4878049, 0.1755, -34.0853653, 0.1755, -22.6219521, 0.00675, 0.0441444, 0.1755, 754.2073364, 0.1755, 160.6707306, 0.1755, 1404.3293457, 0.00675, -0.0560616, 0.1755, 68.6585388, 0.1755, -26.6463413, 0.1755, -44.7560997, 0.00675, -0.0307164, 0.1755, 27.2560978, 0.1755, -62.2560997, 0.1755, 1.7682927, 0.00675, 0.005539, 0.1755, -93.5365906, 0.1755, -56.7682953, 0.1755, 39.6951218, 0.00675, -0.0028534, 0.1755, -1565.1829834, 0.1755, 516.7683105, 0.1755, -34.1463432, , , , , , , , , , , , , , , , , , , , , , 
0.0072692, -0.1176623, 0.189, -155, 0.189, 112.7439041, 0.189, -165.9146423, 0.0072692, 0.0025177, 0.189, -63.0487823, 0.189, 411.0975647, 0.189, 262.1341553, 0.0072692, -0.0575723, 0.189, -2.7439024, 0.189, -79.7560959, 0.189, -18.1097565, 0.0072692, 0.0297093, 0.189, 712.5, 0.189, -91.2195129, 0.189, 1443.4146729, 0.0072692, -0.057908, 0.189, 123.2317123, 0.189, -143.5365906, 0.189, -65.4878082, 0.0072692, -0.0028534, 0.189, 20.1219521, 0.189, -89.3902435, 0.189, -7.6829271, 0.0072692, 0.0023499, 0.189, -102.1341476, 0.189, -210.6097565, 0.189, 39.4512215, 0.0072692, -0.0075532, 0.189, -1640.6097412, 0.189, 295.5487976, 0.189, -165.7317047, , , , , , , , , , , , , , , , , , , , , , 
0.0077885, -0.1089342, 0.2025, -241.646347, 0.2025, -140.8536682, 0.2025, -174.3292694, 0.0077885, -0.0119173, 0.2025, -140.6707306, 0.2025, 52.9878044, 0.2025, 247.3780518, 0.0077885, -0.0713359, 0.2025, 10.9146347, 0.2025, -105, 0.2025, 3.0487804, 0.0077885, -0.021149, 0.2025, 678.475647, 0.2025, 587.3170776, 0.2025, 969.3292847, 0.0077885, -0.0626078, 0.2025, 34.6341476, 0.2025, -152.86586, 0.2025, -92.5, 0.0077885, 0.0246738, 0.2025, -13.1707315, 0.2025, -90.5487823, 0.2025, -11.280488, 0.0077885, -0.0035248, 0.2025, -78.2926865, 0.2025, -180.0609741, 0.2025, 36.4024391, 0.0077885, -0.0135958, 0.2025, -860.7927246, 0.2025, 953.475647, 0.2025, -81.0975647, , , , , , , , , , , , , , , , , , , , , , 
0.0083077, -0.102388, 0.216, -463.0487976, 0.216, -238.9024506, 0.216, -2.9268293, 0.0083077, -0.0288701, 0.216, 108.6585388, 0.216, -255.36586, 0.216, 62.4390259, 0.0083077, -0.0725109, 0.216, 14.6341467, 0.216, -137.4390259, 0.216, 37.5, 0.0083077, -0.051194, 0.216, 459.8170776, 0.216, 1324.6951904, 0.216, 995.1219482, 0.0083077, -0.0678111, 0.216, -1.7682927, 0.216, -42.5609779, 0.216, -72.7439041, 0.0083077, 0.0347448, 0.216, -51.7682953, 0.216, -111.2195129, 0.216, -14.6341467, 0.0083077, -0.0082246, 0.216, 0, 0.216, 0, 0.216, 0, 0.0083077, -0.0125887, 0.216, -1177.8658447, 0.216, 1044.4512939, 0.216, -522.3170776, , , , , , , , , , , , , , , , , , , , , , 
0.0088269, -0.1049058, 0.2295, -430, 0.2295, -182.2561035, 0.2295, -29.2073174, 0.0088269, -0.0506905, 0.2295, 851.4024658, 0.2295, -371.0975647, 0.2295, 416.2804871, 0.0088269, -0.0757, 0.2295, -0.0609756, 0.2295, -134.6951294, 0.2295, 57.0121956, 0.0088269, -0.0327306, 0.2295, 45.0609779, 0.2295, 220.6097565, 0.2295, 861.4634399, 0.0088269, -0.063447, 0.2295, -53.5975609, 0.2295, 54.5731735, 0.2295, -120.1219559, 0.0088269, 0.0562295, 0.2295, -52.3780518, 0.2295, -93.1097565, 0.2295, -5.2439027, 0.0088269, -0.005539, 0.2295, 33.2926826, 0.2295, -14.0853662, 0.2295, 99.6341476, 0.0088269, -0.005539, 0.2295, -1013.475647, 0.2295, 787.8658447, 0.2295, -584.2073364, , , , , , , , , , , , , , , , , , , , , , 
0.0093462, -0.114641, 0.243, -408.1707458, 0.243, 492.2561035, 0.243, -52.1341476, 0.0093462, -0.0762036, 0.243, 723.6585693, 0.243, -150.36586, 0.243, 347.2561035, 0.0093462, -0.0844282, 0.243, -38.1707344, 0.243, -89.8170776, 0.243, 36.8902435, 0.0093462, 0.0139315, 0.243, -217.1341553, 0.243, -161.1585388, 0.243, 445.3658752, 0.0093462, -0.0515297, 0.243, -5.3048782, 0.243, -107.9878082, 0.243, -94.8780518, 0.0093462, 0.1025559, 0.243, -15.3658543, 0.243, -104.3902435, 0.243, -27.1951218, 0.0093462, 0.0030213, 0.243, -36.4024391, 0.243, -173.5365906, 0.243, 121.7682953, 0.0093462, 0.0028534, 0.243, -262.1951294, 0.243, -308.3536682, 0.243, -407.1341553, , , , , , , , , , , , , , , , , , , , , , 
0.0098654, -0.1203479, 0.2565, -705.2438965, 0.2565, 285.1829224, 0.2565, -0.5487805, 0.0098654, -0.0991989, 0.2565, 311.8292847, 0.2565, 305.7926941, 0.2565, 330.3048706, 0.0098654, -0.0892958, 0.2565, -38.7195129, 0.2565, -114.0853653, 0.2565, 15.6097565, 0.0098654, 0.0451514, 0.2565, -322.3780518, 0.2565, -226.2195129, 0.2565, 168.5975647, 0.0098654, -0.0448157, 0.2565, 81.2195129, 0.2565, -122.4390259, 0.2565, -66.9512177, 0.0098654, 0.1473716, 0.2565, 3.8414636, 0.2565, -118.3536606, 0.2565, -33.5975609, 0.0098654, 0.0099031, 0.2565, -47.4390259, 0.2565, -70.9146347, 0.2565, 41.4634171, 0.0098654, 0.0041962, 0.2565, -23.4756107, 0.2565, -519.8170776, 0.2565, -321.5243835, , , , , , , , , , , , , , , , , , , , , , 
0.0103846, -0.1226978, 0.27, -562.012207, 0.27, 80.7317123, 0.27, -71.4024429, 0.0103846, -0.1176623, 0.27, 183.6585388, 0.27, 153.1097565, 0.27, 286.5243835, 0.0103846, -0.0923171, 0.27, 3.2317073, 0.27, -128.1707306, 0.27, 0.9146342, 0.0103846, 0.0169528, 0.27, -332.2561035, 0.27, -174.3902435, 0.27, 307.1951294, 0.0103846, -0.0572366, 0.27, 134.0243988, 0.27, -141.0365906, 0.27, -58.5365868, 0.0103846, 0.1579461, 0.27, -11.7073174, 0.27, -109.4512253, 0.27, -16.280489, 0.0103846, 0.0166171, 0.27, -25.7317085, 0.27, -77.1341476, 0.27, -27.3780499, 0.0103846, -0.005539, 0.27, -141.5243988, 0.27, -97.7439041, 0.27, -385.6707458, , , , , , , , , , , , , , , , , , , , , , 
0.0109038, -0.1240406, 0.2835, -423.4756165, 0.2835, -45.3658562, 0.2835, -186.0365906, 0.0109038, -0.1305867, 0.2835, 262.8048706, 0.2835, -309.3902588, 0.2835, 198.1707306, 0.0109038, -0.0971847, 0.2835, 17.0731716, 0.2835, -104.0243912, 0.2835, -2.2560976, 0.0109038, -0.0169528, 0.2835, -333.5365906, 0.2835, -98.4756088, 0.2835, 216.1585388, 0.0109038, -0.0938277, 0.2835, 115.9756088, 0.2835, -54.3902435, 0.2835, -107.2561035, 0.0109038, 0.1300832, 0.2835, -20.1829281, 0.2835, -73.9634171, 0.2835, -34.2682953, 0.0109038, 0.0236667, 0.2835, -61.4634171, 0.2835, -146.2195129, 0.2835, -8.4146347, 0.0109038, -0.014435, 0.2835, -26.9512196, 0.2835, -292.1951294, 0.2835, -406.0975647, , , , , , , , , , , , , , , , , , , , , , 
0.0114231, -0.1257191, 0.297, -229.4512177, 0.297, -112.86586, 0.297, -158.2317047, 0.0114231, -0.1445182, 0.297, 384.2073364, 0.297, -593.2317505, 0.297, 34.5731697, 0.0114231, -0.0995346, 0.297, -27.7439022, 0.297, -24.8780499, 0.297, -18.2317085, 0.0114231, -0.0018463, 0.297, -314.0853882, 0.297, -65.6707306, 0.297, 158.3536682, 0.0114231, -0.1362936, 0.297, 29.7560978, 0.297, -36.341465, 0.297, -144.8780518, 0.0114231, 0.0874495, 0.297, -2.0121951, 0.297, -37.6219521, 0.297, -34.2073174, 0.0114231, 0.0298772, 0.297, -66.0975647, 0.297, -137.3170776, 0.297, 27.6219521, 0.0114231, -0.0132601, 0.297, 55.5487823, 0.297, -204.8780518, 0.297, -331.8902588, , , , , , , , , , , , , , , , , , , , , , 
0.0119423, -0.1220264, 0.3105, -240.5487823, 0.3105, -224.0853729, 0.3105, -62.4390259, 0.0119423, -0.1633173, 0.3105, 340.6707458, 0.3105, -629.512207, 0.3105, 13.1097565, 0.0119423, -0.093492, 0.3105, -50.9756126, 0.3105, -63.2926826, 0.3105, 86.0975647, 0.0119423, 0.0360876, 0.3105, -206.9512177, 0.3105, 20.060976, 0.3105, 259.3292847, 0.0119423, -0.1680171, 0.3105, 11.341464, 0.3105, -83.5365906, 0.3105, -130.9146423, 0.0119423, 0.0424659, 0.3105, -27.3780499, 0.3105, -49.0243912, 0.3105, -24.8170738, 0.0119423, 0.0360876, 0.3105, -36.2195129, 0.3105, -125.7317123, 0.3105, 45.0609779, 0.0119423, -0.0058747, 0.3105, -103.7195129, 0.3105, -99.3902435, 0.3105, -317.012207, , , , , , , , , , , , , , , , , , , , , , 
0.0124615, -0.1089342, 0.324, -202.9268341, 0.324, -127.0731735, 0.324, -54.0243912, 0.0124615, -0.1827878, 0.324, 134.3902435, 0.324, -179.5731812, 0.324, 113.1707306, 0.0124615, -0.0803998, 0.324, -0.5487805, 0.324, -129.6951294, 0.324, 84.7560959, 0.0124615, 0.0669718, 0.324, -116.5243912, 0.324, 125.0609818, 0.324, 199.2073212, 0.0124615, -0.1888304, 0.324, 20.4268303, 0.324, -105.7926865, 0.324, -77.68293, 0.0124615, 0.0011749, 0.324, -57.0121956, 0.324, -104.5121994, 0.324, -1.6463414, 0.0124615, 0.040116, 0.324, -36.7682953, 0.324, -73.7804871, 0.324, 36.0365868, 0.0124615, 0.0031891, 0.324, -116.1585388, 0.324, -85, 0.324, -244.4512177, , , , , , , , , , , , , , , , , , , , , , 
0.0129808, -0.0919814, 0.3375, -80.7926865, 0.3375, -20.1829281, 0.3375, -143.8414612, 0.0129808, -0.1990692, 0.3375, 8.6585369, 0.3375, 60.1219521, 0.3375, 207.9268341, 0.0129808, -0.061265, 0.3375, 62.1341476, 0.3375, -82.0731735, 0.3375, -1.5853659, 0.0129808, 0.0730144, 0.3375, -108.7804871, 0.3375, 123.5975647, 0.3375, 139.8170776, 0.0129808, -0.1916838, 0.3375, 31.7073174, 0.3375, -6.5853658, 0.3375, -6.4634147, 0.0129808, -0.0203098, 0.3375, -30.2439022, 0.3375, -92.9878082, 0.3375, 36.341465, 0.0129808, 0.0404517, 0.3375, -49.8780518, 0.3375, -56.7073174, 0.3375, 20.060976, 0.0129808, 0.0036927, 0.3375, -51.7073174, 0.3375, 18.9634151, 0.3375, -177.1341553, , , , , , , , , , , , , , , , , , , , , , 
0.0135, -0.0793927, 0.351, -30.2439022, 0.351, 26.8902454, 0.351, -191.3414612, 0.0135, -0.2096437, 0.351, -10.3048782, 0.351, 20.7926826, 0.351, 246.8902435, 0.0135, -0.0448157, 0.351, 53.2926826, 0.351, -44.5121956, 0.351, -35.9756088, 0.0135, 0.0508583, 0.351, -113.5975647, 0.351, 70.6707306, 0.351, 87.3780518, 0.0135, -0.1723812, 0.351, 42.1341476, 0.351, 3.7804878, 0.351, 29.0243912, 0.0135, -0.0251774, 0.351, 16.7073174, 0.351, -41.0365868, 0.351, 48.3536606, 0.0135, 0.0399481, 0.351, -55.4268303, 0.351, -51.4024391, 0.351, -5.670732, 0.0135, -0.0031891, 0.351, -39.2682953, 0.351, 46.2804871, 0.351, -169.2073212, , , , , , , , , , , , , , , , , , , , , , 
0.0140192, -0.0871138, 0.3645, 13.841464, 0.3645, 55.6707344, 0.3645, -218.4756165, 0.0140192, -0.2185397, 0.3645, -20.2439022, 0.3645, 14.3902445, 0.3645, 207.1341553, 0.0140192, -0.0360876, 0.3645, 41.0365868, 0.3645, -10.6707315, 0.3645, -30.4878063, 0.0140192, 0.0223239, 0.3645, -94.3292694, 0.3645, 54.3902435, 0.3645, 79.0243912, 0.0140192, -0.152575, 0.3645, 76.3414688, 0.3645, -56.7073174, 0.3645, 7.7439027, 0.0140192, -0.0428016, 0.3645, 10.3658543, 0.3645, 29.1463413, 0.3645, 30.3048782, 0.0140192, 0.0407874, 0.3645, -78.1097565, 0.3645, -79.5731735, 0.3645, -3.9024391, 0.0140192, -0.0082246, 0.3645, -13.0487804, 0.3645, -33.5975609, 0.3645, -160.4268341, , , , , , , , , , , , , , , , , , , , , , 
0.0145385, -0.1169909, 0.378, -55.3048782, 0.378, 4.4512196, 0.378, -169.8780518, 0.0145385, -0.2257572, 0.378, -94.3292694, 0.378, 48.7195129, 0.378, 143.2926788, 0.0145385, -0.0344091, 0.378, 17.0121956, 0.378, 23.9024391, 0.378, -2.5, 0.0145385, 0.0151064, 0.378, -117.8048782, 0.378, -11.9512196, 0.378, 11.6463413, 0.0145385, -0.1540856, 0.378, 80.0609741, 0.378, -69.7560959, 0.378, -24.2073174, 0.0145385, -0.0750286, 0.378, -13.2926836, 0.378, 45.4268303, 0.378, 11.6463413, 0.0145385, 0.0419623, 0.378, -85.3048782, 0.378, -99.5121994, 0.378, 2.5609756, 0.0145385, -0.0058747, 0.378, 32.9268303, 0.378, -46.1585388, 0.378, -138.3536682, , , , , , , , , , , , , , , , , , , , , , 
0.0150577, -0.1371328, 0.3915, -12.4390249, 0.3915, 131.0975647, 0.3915, -118.1097565, 0.0150577, -0.2250858, 0.3915, -145.2439117, 0.3915, 50.1829262, 0.3915, 111.2195129, 0.0150577, -0.0428016, 0.3915, -7.1951222, 0.3915, -1.097561, 0.3915, 31.7682934, 0.0150577, 0.0240024, 0.3915, -143.3536682, 0.3915, -87.9878082, 0.3915, -82.2560959, 0.0150577, -0.1821164, 0.3915, 57.8658562, 0.3915, -45.8536606, 0.3915, -34.8170738, 0.0150577, -0.0978561, 0.3915, -30.1829281, 0.3915, 11.341464, 0.3915, 2.1341465, 0.0150577, 0.0454871, 0.3915, -79.4512177, 0.3915, -99.0853653, 0.3915, 17.2560978, 0.0150577, -0.0030213, 0.3915, 125.0609818, 0.3915, -67.4390259, 0.3915, -92.3780518, , , , , , , , , , , , , , , , , , , , , , 
0.0155769, -0.1290761, 0.405, 28.9024391, 0.405, 73.9024429, 0.405, -134.2682953, 0.0155769, -0.2177005, 0.405, -151.4634247, 0.405, 36.9512215, 0.405, 106.2195129, 0.0155769, -0.0548867, 0.405, -8.5365858, 0.405, -62.0731735, 0.405, 51.8292694, 0.0155769, 0.0243381, 0.405, -172.6219482, 0.405, -161.4634247, 0.405, -135.1219482, 0.0155769, -0.2277714, 0.405, 27.9268303, 0.405, -19.7560978, 0.405, -57.8048782, 0.0155769, -0.1038987, 0.405, -36.4024391, 0.405, -70.2439041, 0.405, 1.4634147, 0.0155769, 0.0530404, 0.405, -47.1951218, 0.405, -54.3292694, 0.405, 43.2926826, 0.0155769, -0.0065461, 0.405, 184.0243988, 0.405, -159.146347, 0.405, -73.8414688, , , , , , , , , , , , , , , , , , , , , , 
0.0160962, -0.1190051, 0.4185, 81.2195129, 0.4185, 7.3780489, 0.4185, -163.1097565, 0.0160962, -0.2106508, 0.4185, -167.8048859, 0.4185, -4.2073174, 0.4185, 108.8414688, 0.0160962, -0.0659648, 0.4185, 10.3658543, 0.4185, -158.5975647, 0.4185, 23.9024391, 0.0160962, 0.0045319, 0.4185, -195.9756165, 0.4185, -188.2926941, 0.4185, -173.1707306, 0.0160962, -0.2673838, 0.4185, 44.3292694, 0.4185, -10.060976, 0.4185, -108.0487823, 0.0160962, -0.1136339, 0.4185, -3.9024391, 0.4185, -163.3536682, 0.4185, 2.9268293, 0.0160962, 0.0592508, 0.4185, -29.9390259, 0.4185, -54.8170738, 0.4185, 84.8780518, 0.0160962, -0.0137636, 0.4185, 226.3414612, 0.4185, -189.2682953, 0.4185, -64.5121994, , , , , , , , , , , , , , , , , , , , , , 
0.0166154, -0.1275654, 0.432, 144.146347, 0.432, -10.9756098, 0.432, -185.1829376, 0.0166154, -0.2072938, 0.432, -166.8902435, 0.432, -66.2804871, 0.432, 86.7682953, 0.0166154, -0.076875, 0.432, 21.280489, 0.432, -224.6951294, 0.432, -21.4024391, 0.0166154, -0.008896, 0.432, -181.7073212, 0.432, -157.1341553, 0.432, -203.0487823, 0.0166154, -0.2801404, 0.432, 92.3780518, 0.432, -37.4390259, 0.432, -148.5365906, 0.0166154, -0.142504, 0.432, 33.4756088, 0.432, -237.9878082, 0.432, -0.0609756, 0.0166154, 0.0626078, 0.432, -42.0731735, 0.432, -117.3170776, 0.432, 96.9512253, 0.0166154, -0.012253, 0.432, 252.7439117, 0.432, -129.8170776, 0.432, -47.5, , , , , , , , , , , , , , , , , , , , , , 
0.0171346, -0.1448539, 0.4455, 166.5243988, 0.4455, -68.4146347, 0.4455, -195.1219482, 0.0171346, -0.2015869, 0.4455, -163.4146423, 0.4455, -102.3170776, 0.4455, 55.7926826, 0.0171346, -0.0891279, 0.4455, 25.9146347, 0.4455, -257.5609741, 0.4455, -27.7439022, 0.0171346, 0.005539, 0.4455, -160.4878082, 0.4455, -104.2682953, 0.4455, -218.0487823, 0.0171346, -0.2734264, 0.4455, 112.3780518, 0.4455, -73.5365906, 0.4455, -158.2317047, 0.0171346, -0.1787594, 0.4455, 23.6585369, 0.4455, -229.3292694, 0.4455, -1.3414634, 0.0171346, 0.0632792, 0.4455, 0, 0.4455, 0, 0.4455, 0, 0.0171346, -0.0041962, 0.4455, 263.9634094, 0.4455, -79.6341476, 0.4455, -36.5853653, , , , , , , , , , , , , , , , , , , , , , 
0.0176538, -0.1535821, 0.459, 182.7439117, 0.459, -97.9878082, 0.459, -191.8292694, 0.0176538, -0.1883268, 0.459, -177.0731812, 0.459, -96.4024429, 0.459, 39.8170738, 0.0176538, -0.0884565, 0.459, 23.3536587, 0.459, -218.9634247, 0.459, 5.7926831, 0.0176538, 0.0070497, 0.459, -150.2439117, 0.459, -71.9512177, 0.459, -226.9512177, 0.0176538, -0.2603342, 0.459, 91.1585388, 0.459, -40.3658562, 0.459, -143.1097565, 0.0176538, -0.2061189, 0.459, 2.2560976, 0.459, -202.7439117, 0.459, -4.2682929, 0.0176538, 0.0629435, 0.459, -44.2073174, 0.459, -132.6219482, 0.459, 106.5243912, 0.0176538, -0.002182, 0.459, 270.8536682, 0.459, -39.4512215, 0.459, -30.3658543, , , , , , , , , , , , , , , , , , , , , , 
0.0181731, -0.1426719, 0.4725, 218.4146423, 0.4725, -86.3414688, 0.4725, -178.2317047, 0.0181731, -0.1683528, 0.4725, -232.5609741, 0.4725, -65.6707306, 0.4725, 36.0975609, 0.0181731, -0.0639506, 0.4725, 2.5609756, 0.4725, -166.0975647, 0.4725, 37.9878044, 0.0181731, -0.0132601, 0.4725, -143.4756165, 0.4725, -39.3902435, 0.4725, -235.1829376, 0.0181731, -0.2432136, 0.4725, 75.8536606, 0.4725, -19.3292694, 0.4725, -134.9390259, 0.0181731, -0.2239109, 0.4725, -31.8902454, 0.4725, -148.4756165, 0.4725, -14.5121956, 0.0181731, 0.0607614, 0.4725, 0, 0.4725, 0, 0.4725, 0, 0.0181731, 0.0003357, 0.4725, 266.5853577, 0.4725, 2.2560976, 0.4725, -23.0487804, , , , , , , , , , , , , , , , , , , , , , 
0.0186923, -0.1211872, 0.486, 238.4146423, 0.486, -67.8048782, 0.486, -162.6829376, 0.0186923, -0.1448539, 0.486, -274.1463623, 0.486, -49.2682953, 0.486, 35.0609779, 0.0186923, -0.0399481, 0.486, -9.1463413, 0.486, -123.2926865, 0.486, 31.2195129, 0.0186923, -0.018967, 0.486, -137.2561035, 0.486, -5.1829271, 0.486, -235.4878082, 0.0186923, -0.223743, 0.486, 64.9390259, 0.486, -24.6341476, 0.486, -127.8048782, 0.0186923, -0.2388495, 0.486, -21.4024391, 0.486, -111.0365906, 0.486, -10.060976, 0.0186923, 0.0575723, 0.486, -54.5121956, 0.486, -63.1097565, 0.486, 112.3780518, 0.0186923, 0.008896, 0.486, 263.8414612, 0.486, 43.1707344, 0.486, -26.280489, , , , , , , , , , , , , , , , , , , , , , 
0.0192115, -0.103563, 0.4995, 249.9390259, 0.4995, -46.8292694, 0.4995, -149.146347, 0.0192115, -0.1237049, 0.4995, -347.6829224, 0.4995, -29.3292694, 0.4995, 26.7682934, 0.0192115, -0.047837, 0.4995, 11.219512, 0.4995, -105.6097565, 0.4995, 12.7439032, 0.0192115, -0.0270237, 0.4995, -142.3170776, 0.4995, 29.9390259, 0.4995, -233.9634247, 0.0192115, -0.2086366, 0.4995, 76.8902435, 0.4995, -52.5, 0.4995, -117.0121994, 0.0192115, -0.2593271, 0.4995, -0.1219512, 0.4995, -119.0243912, 0.4995, 13.1097565, 0.0192115, 0.0555581, 0.4995, -76.646347, 0.4995, -102.9268341, 0.4995, 94.3902435, 0.0192115, 0.0065461, 0.4995, 267.0731812, 0.4995, 61.1585388, 0.4995, -34.5731697, , , , , , , , , , , , , , , , , , , , , , 
0.0197308, -0.0916457, 0.513, 252.9268341, 0.513, -30, 0.513, -140.9756165, 0.0197308, -0.1065843, 0.513, -377.3170776, 0.513, -15, 0.513, 1.7682927, 0.0197308, -0.0740215, 0.513, 34.5731697, 0.513, -114.5121994, 0.513, 6.0975609, 0.0197308, -0.0592508, 0.513, -145.7926788, 0.513, 17.8658543, 0.513, -234.3292694, 0.0197308, -0.1975586, 0.513, 84.7560959, 0.513, -57.2560997, 0.513, -98.1097565, 0.0197308, -0.2863508, 0.513, 3.4146342, 0.513, -120.9146347, 0.513, 31.8902454, 0.0197308, 0.0555581, 0.513, 0, 0.513, 0, 0.513, 0, 0.0197308, -0.0058747, 0.513, 279.2073364, 0.513, 27.3170738, 0.513, -41.7682953, , , , , , , , , , , , , , , , , , , , , , 
0.02025, -0.079057, 0.5265, 251.3414764, 0.5265, 12.1341467, 0.5265, -127.3780518, 0.02025, -0.0944991, 0.5265, -288.5975647, 0.5265, -29.1463413, 0.5265, -20.9146347, 0.02025, -0.0844282, 0.5265, 49.7560997, 0.5265, -138.5975647, 0.5265, 24.0853672, 0.02025, -0.0829175, 0.5265, -175.6707306, 0.5265, -18.9634151, 0.5265, -230.6707306, 0.02025, -0.1901732, 0.5265, 83.2926865, 0.5265, -18.2926826, 0.5265, -77.3780518, 0.02025, -0.3103532, 0.5265, -21.7073174, 0.5265, -126.8902435, 0.5265, 36.0365868, 0.02025, 0.0515297, 0.5265, -69.2073212, 0.5265, -64.0243912, 0.5265, 86.2195129, 0.02025, -0.0062104, 0.5265, 282.6829224, 0.5265, -18.1707325, 0.5265, -46.9512215, , , , , , , , , , , , , , , , , , , , , , 
0.0207692, -0.0639506, 0.54, 233.0487823, 0.54, 7.2560978, 0.54, -130.6707306, 0.0207692, -0.0837568, 0.54, -204.2073212, 0.54, -32.1341476, 0.54, 18.2926826, 0.0207692, -0.0793927, 0.54, 45.4878044, 0.54, -154.8780518, 0.54, 36.6463432, 0.0207692, -0.054551, 0.54, -208.8414612, 0.54, -43.0487823, 0.54, -231.7073212, 0.0207692, -0.1918517, 0.54, 71.7073212, 0.54, 28.3536587, 0.54, -68.4756088, 0.0207692, -0.3241169, 0.54, -42.5, 0.54, -135.8536682, 0.54, 23.7195129, 0.0207692, 0.040116, 0.54, 0, 0.54, 0, 0.54, 0, 0.0207692, 0.0062104, 0.54, 286.2195129, 0.54, -17.6829281, 0.54, -62.9878082, , , , , , , , , , , , , , , , , , , , , , 
0.0212885, -0.0414588, 0.5535, 217.8048859, 0.5535, 7.1341467, 0.5535, -147.3170776, 0.0212885, -0.0728466, 0.5535, -288.4756165, 0.5535, -7.4390244, 0.5535, 74.3902435, 0.0212885, -0.0746929, 0.5535, 41.341465, 0.5535, -157.9878082, 0.5535, 26.9512196, 0.0212885, 0.0162814, 0.5535, -201.646347, 0.5535, 39.8780479, 0.5535, -237.6219635, 0.0212885, -0.194873, 0.5535, 63.9024391, 0.5535, 30.1829281, 0.5535, -71.8292694, 0.0212885, -0.3311666, 0.5535, -21.7682934, 0.5535, -155.8536682, 0.5535, 22.3170738, 0.0212885, 0.0219883, 0.5535, 0, 0.5535, 0, 0.5535, 0, 0.0212885, 0.0191348, 0.5535, 301.6463623, 0.5535, 60.2439041, 0.5535, -71.5853653, , , , , , , , , , , , , , , , , , , , , , 
0.0218077, -0.01561, 0.567, 206.0975647, 0.567, 38.7804871, 0.567, -159.3292694, 0.0218077, -0.0632792, 0.567, -327.9268494, 0.567, 12.7439032, 0.567, 74.5731735, 0.0218077, -0.0699931, 0.567, 49.3292694, 0.567, -145.6097565, 0.567, 8.6585369, 0.0218077, 0.0693217, 0.567, -175.2439117, 0.567, 129.6951294, 0.567, -239.6341553, 0.0218077, -0.1938659, 0.567, 70.7926865, 0.567, -17.2560978, 0.567, -75, 0.0218077, -0.3325093, 0.567, -15.060976, 0.567, -141.646347, 0.567, 43.1097565, 0.0218077, -0.0052033, 0.567, -68.7804871, 0.567, -55.7317085, 0.567, 70.9756088, 0.0218077, 0.0280308, 0.567, 306.2804871, 0.567, 82.1341476, 0.567, -74.1463394, , , , , , , , , , , , , , , , , , , , , , 
0.0223269, 0.0062104, 0.5805, 208.7195129, 0.5805, 95.3658524, 0.5805, -164.9390259, 0.0223269, -0.0565652, 0.5805, -295.73172, 0.5805, 56.1585388, 0.5805, 46.1585388, 0.0223269, -0.0793927, 0.5805, 58.4756126, 0.5805, -102.68293, 0.5805, 25.6097565, 0.0223269, 0.0793927, 0.5805, -152.2561035, 0.5805, 138.0487823, 0.5805, -245.36586, 0.0223269, -0.1861448, 0.5805, 77.9878082, 0.5805, -33.3536606, 0.5805, -68.7195129, 0.0223269, -0.3237812, 0.5805, -31.7073174, 0.5805, -102.0121994, 0.5805, 56.4634171, 0.0223269, -0.0290379, 0.5805, -74.9390259, 0.5805, -75.3658524, 0.5805, 62.9878082, 0.0223269, 0.0347448, 0.5805, 293.9634094, 0.5805, 119.6341476, 0.5805, -58.2926826, , , , , , , , , , , , , , , , , , , , , , 
0.0228462, 0.0199741, 0.594, 247.0731812, 0.594, 138.1707306, 0.594, -166.7682953, 0.0228462, -0.0505226, 0.594, -256.1585388, 0.594, 65.18293, 0.594, 39.0243912, 0.0228462, -0.1015488, 0.594, 55.5487823, 0.594, -53.3536606, 0.594, 47.8658562, 0.0228462, 0.0706645, 0.594, -133.7804871, 0.594, 93.1707306, 0.594, -245.7926941, 0.0228462, -0.1764096, 0.594, 80.3658524, 0.594, -6.8292685, 0.594, -60.4878044, 0.0228462, -0.303975, 0.594, -53.2317085, 0.594, -43.2926826, 0.594, 57.2560997, 0.0228462, -0.0283665, 0.594, 0, 0.594, 0, 0.594, 0, 0.0228462, 0.0375982, 0.594, 273.5365906, 0.594, 113.6585388, 0.594, -30.1219521, , , , , , , , , , , , , , , , , , , , , , 
0.0233654, 0.0258488, 0.6075, 281.5243835, 0.6075, 87.9878082, 0.6075, -146.1585388, 0.0233654, -0.0391089, 0.6075, -286.7683105, 0.6075, 124.0243912, 0.6075, 34.1463432, 0.0233654, -0.0985275, 0.6075, 46.6463432, 0.6075, -29.5121956, 0.6075, 66.3414612, 0.0233654, 0.0844282, 0.6075, -41.0365868, 0.6075, -29.1463413, 0.6075, -135.7317047, 0.0233654, -0.1639887, 0.6075, 85.1219559, 0.6075, -7.9268293, 0.6075, -65.4268341, 0.0233654, -0.2682231, 0.6075, -62.5, 0.6075, -26.7073174, 0.6075, 52.1951218, 0.0233654, -0.0058747, 0.6075, -64.1463394, 0.6075, -54.8170738, 0.6075, 72.4390259, 0.0233654, 0.036759, 0.6075, 249.3292694, 0.6075, 27.3780499, 0.6075, 27.0731716, , , , , , , , , , , , , , , , , , , , , , 
0.0238846, 0.0280308, 0.621, 550.3048706, 0.621, 40.4268303, 0.621, 74.7560959, 0.0238846, -0.0203098, 0.621, -371.5853882, 0.621, 397.8658752, 0.621, -187.5609741, 0.0238846, -0.0562295, 0.621, 46.8292694, 0.621, -34.3292694, 0.621, 52.8048782, 0.0238846, 0.1174945, 0.621, 312.1951294, 0.621, 830.3048706, 0.621, 244.0243988, 0.0238846, -0.1399863, 0.621, 83.4756088, 0.621, -50.6707344, 0.621, -76.8902435, 0.0238846, -0.2230716, 0.621, -60.5487823, 0.621, -11.0975609, 0.621, 41.341465, 0.0238846, 0.030045, 0.621, -50.1829262, 0.621, -24.2073174, 0.621, 103.2926865, 0.0238846, 0.0327306, 0.621, -419.0244141, 0.621, 25.9756107, 0.621, -139.4512177, , , , , , , , , , , , , , , , , , , , , , 
0.0244038, 0.0323949, 0.6345, 20.060976, 0.6345, 220.2439117, 0.6345, -20.9146347, 0.0244038, 0.0036927, 0.6345, -2.9878049, 0.6345, -75.3658524, 0.6345, -142.9878082, 0.0244038, -0.0176242, 0.6345, 31.341465, 0.6345, -41.1585388, 0.6345, 22.2560978, 0.0244038, 0.1421683, 0.6345, 223.9634247, 0.6345, -5.5487804, 0.6345, 209.8170776, 0.0244038, -0.1037308, 0.6345, 55.18293, 0.6345, -62.2560997, 0.6345, -117.68293, 0.0244038, -0.184802, 0.6345, -24.9390259, 0.6345, -46.4634171, 0.6345, 40.3048782, 0.0244038, 0.0822461, 0.6345, 1.2804878, 0.6345, -82.9268341, 0.6345, 129.5731812, 0.0244038, 0.0273594, 0.6345, -520.6707153, 0.6345, 835.975647, 0.6345, 124.8170776, , , , , , , , , , , , , , , , , , , , , , 
0.0249231, 0.0260166, 0.648, -106.646347, 0.648, -237.1951294, 0.648, -172.2561035, 0.0249231, 0.0280308, 0.648, -52.5609779, 0.648, -288.5975647, 0.648, 29.0243912, 0.0249231, -0.0018463, 0.648, 23.3536587, 0.648, -28.6585369, 0.648, 29.3902454, 0.0249231, 0.1408255, 0.648, -197.3170776, 0.648, -361.4634094, 0.648, 2.8658538, 0.0249231, -0.0626078, 0.648, 7.8048782, 0.648, 60.0609779, 0.648, -61.6463432, 0.0249231, -0.1519036, 0.648, -12.0121956, 0.648, -53.0487823, 0.648, 48.2926826, 0.0249231, 0.1512322, 0.648, 8.3536587, 0.648, -36.341465, 0.648, 25.9756107, 0.0249231, 0.0226596, 0.648, 92.1341476, 0.648, -126.4634171, 0.648, -17.8048782, , , , , , , , , , , , , , , , , , , , , , 
0.0254423, -0.0001678, 0.6615, -151.9512177, 0.6615, -315.0609741, 0.6615, -109.2073212, 0.0254423, 0.0488441, 0.6615, 73.9024429, 0.6615, -98.5975647, 0.6615, 225.36586, 0.0254423, 0.0125887, 0.6615, 33.9024391, 0.6615, 12.7439032, 0.6615, 12.7439032, 0.0254423, 0.1421683, 0.6615, -214.7561035, 0.6615, -43.5365868, 0.6615, -246.7682953, 0.0254423, -0.0209812, 0.6615, -23.4146347, 0.6615, 96.0365906, 0.6615, 45.3048782, 0.0254423, -0.1163195, 0.6615, -2.4390244, 0.6615, 1.5853659, 0.6615, 57.2560997, 0.0254423, 0.2234073, 0.6615, 19.4512196, 0.6615, 137.5, 0.6615, -33.7804871, 0.0254423, 0.0186313, 0.6615, 543.4146729, 0.6615, -708.5366211, 0.6615, -95.1219559, , , , , , , , , , , , , , , , , , , , , , 
0.0259615, -0.0323949, 0.675, -134.2682953, 0.675, -92.1951218, 0.675, 13.1707315, 0.0259615, 0.0616007, 0.675, 188.9024506, 0.675, -161.5853729, 0.675, 133.7195129, 0.0259615, 0.0374304, 0.675, 33.5365868, 0.675, 96.7073212, 0.675, -33.7804871, 0.0259615, 0.1757382, 0.675, -3.7195122, 0.675, -246.2804871, 0.675, -33.6585388, 0.0259615, 0.0146029, 0.675, -81.2195129, 0.675, 143.3536682, 0.675, 85, 0.0259615, -0.0696574, 0.675, 38.3536606, 0.675, 87.5, 0.675, 65.7317123, 0.0259615, 0.2841688, 0.675, 67.3780518, 0.675, 195.9756165, 0.675, -17.6829281, 0.0259615, 0.0125887, 0.675, 17.0731716, 0.675, -315.8536682, 0.675, 41.5853653, , , , , , , , , , , , , , , , , , , , , , 
0.0264808, -0.0323949, 0.6885, -114.4512253, 0.6885, 234.2073212, 0.6885, -62.8048782, 0.0264808, 0.0703288, 0.6885, 94.5121994, 0.6885, -45.5487823, 0.6885, 42.1951218, 0.0264808, 0.0558938, 0.6885, 30.2439022, 0.6885, 172.3780518, 0.6885, -42.8048782, 0.0264808, 0.2042725, 0.6885, -37.4390259, 0.6885, -316.9512329, 0.6885, 27.9878063, 0.0264808, 0.0387732, 0.6885, -101.7073212, 0.6885, 165.4878082, 0.6885, 78.9634171, 0.0264808, -0.0216526, 0.6885, 46.2195129, 0.6885, 196.3414612, 0.6885, 70.5487823, 0.0264808, 0.327306, 0.6885, 76.3414688, 0.6885, 153.7804871, 0.6885, -23.7195129, 0.0264808, 0.0085603, 0.6885, -79.6341476, 0.6885, 355.6707458, 0.6885, 44.4512215, , , , , , , , , , , , , , , , , , , , , , 
0.027, 0.0092317, 0.702, 21.0975609, 0.702, 161.646347, 0.702, 22.9878063, 0.027, 0.0820783, 0.702, -81.5853653, 0.702, 442.2561035, 0.702, -21.2195129, 0.027, 0.0533761, 0.702, 42.8048782, 0.702, 176.0975647, 0.702, -22.2560978, 0.027, 0.1928588, 0.702, -45.2439041, 0.702, -23.9024391, 0.702, 10.1219511, 0.027, 0.0516976, 0.702, -96.4634171, 0.702, 182.6219482, 0.702, 71.2195129, 0.027, 0.0159457, 0.702, 11.5243902, 0.702, 246.2804871, 0.702, 63.2317085, 0.027, 0.3509728, 0.702, 65.6707306, 0.702, 153.5975647, 0.702, -33.4756088, 0.027, 0.0065461, 0.702, 51.8292694, 0.702, -169.0243988, 0.702, -65.3658524, , , , , , , , , , , , , , , , , , , , , , 
0.0275192, 0.0609293, 0.7155, 91.3414688, 0.7155, 114.7561035, 0.7155, 11.7682934, 0.0275192, 0.0944991, 0.7155, -168.3536682, 0.7155, 296.3414612, 0.7155, -23.7195129, 0.0275192, 0.0448157, 0.7155, 55.3658562, 0.7155, 140.4878082, 0.7155, 3.1707318, 0.0275192, 0.1487144, 0.7155, -69.0853653, 0.7155, 192.1951294, 0.7155, -104.0243912, 0.0275192, 0.0605936, 0.7155, -89.7560959, 0.7155, 198.9634247, 0.7155, 72.0121994, 0.0275192, 0.0475013, 0.7155, -29.8780499, 0.7155, 225.3048859, 0.7155, 56.4634171, 0.0275192, 0.3566796, 0.7155, 70.6707306, 0.7155, 170.0609741, 0.7155, -21.9512196, 0.0275192, 0.0031891, 0.7155, 97.2561035, 0.7155, 1.7682927, 0.7155, -35.2439041, , , , , , , , , , , , , , , , , , , , , , 
0.0280385, 0.0951705, 0.729, 108.1097565, 0.729, 6.7073174, 0.729, -28.780489, 0.0280385, 0.1044022, 0.729, -184.8170776, 0.729, -271.8902588, 0.729, -20.7926826, 0.0280385, 0.0513619, 0.729, 65.2439041, 0.729, 95.9756088, 0.729, 34.3292694, 0.0280385, 0.100206, 0.729, -6.4634147, 0.729, 86.9512253, 0.729, -66.6463394, 0.0280385, 0.0666361, 0.729, -70.6707306, 0.729, 143.3536682, 0.729, 50.6707344, 0.0280385, 0.0777142, 0.729, -61.6463432, 0.729, 145.5487823, 0.729, 61.7073174, 0.0280385, 0.3541619, 0.729, 65.9146347, 0.729, 149.0853729, 0.729, -2.0121951, 0.0280385, -0.0003357, 0.729, 67.8658524, 0.729, 157.1951294, 0.729, -20.7317085, , , , , , , , , , , , , , , , , , , , , , 
0.0285577, 0.1099413, 0.7425, -1.4634147, 0.7425, 21.7682934, 0.7425, -58.7804909, 0.0285577, 0.1111162, 0.7425, -57.5, 0.7425, -10, 0.7425, -26.7682934, 0.0285577, 0.0659648, 0.7425, 59.5121956, 0.7425, 44.9390259, 0.7425, 62.1341476, 0.0285577, 0.0555581, 0.7425, 27.8048782, 0.7425, 97.8048782, 0.7425, 10.1829271, 0.0285577, 0.070161, 0.7425, -49.5731735, 0.7425, 70.6707306, 0.7425, 14.2073174, 0.0285577, 0.1062486, 0.7425, -74.4512177, 0.7425, 40.3658562, 0.7425, 62.5609779, 0.0285577, 0.346273, 0.7425, 51.7682953, 0.7425, 69.4512177, 0.7425, 10.9146347, 0.0285577, -0.0031891, 0.7425, -6.0365853, 0.7425, 88.9024429, 0.7425, -17.439024, , , , , , , , , , , , , , , , , , , , , , 
0.0290769, 0.1134661, 0.756, -8.5975609, 0.756, 71.2804871, 0.756, -56.0975609, 0.0290769, 0.1171588, 0.756, 8.9024391, 0.756, 33.3536606, 0.756, -57.1341476, 0.0290769, 0.0780499, 0.756, 48.5975609, 0.756, 25.6707325, 0.756, 72.0731735, 0.0290769, -0.0041962, 0.756, -18.4756107, 0.756, -35.2439041, 0.756, -46.4024391, 0.0290769, 0.072343, 0.756, -52.8048782, 0.756, 31.7073174, 0.756, -12.5, 0.0290769, 0.1324331, 0.756, -70.8536606, 0.756, -5.7317076, 0.756, 59.8170738, 0.0290769, 0.3325093, 0.756, 62.3780518, 0.756, 30.4878063, 0.756, 13.780488, 0.0290769, -0.0085603, 0.756, 59.2682953, 0.756, 5.1219511, 0.756, -10.7926836, , , , , , , , , , , , , , , , , , , , , , 
0.0295962, 0.1166552, 0.7695, 118.9634171, 0.7695, 69.3902435, 0.7695, 3.9024391, 0.0295962, 0.1210193, 0.7695, -39.8780479, 0.7695, 65.2439041, 0.7695, -25.7317085, 0.0295962, 0.0911421, 0.7695, 30.9146347, 0.7695, 6.0365853, 0.7695, 75.9756088, 0.0295962, -0.0508583, 0.7695, -53.7804909, 0.7695, -73.3536606, 0.7695, -66.3414612, 0.0295962, 0.0777142, 0.7695, -67.3780518, 0.7695, -8.2317076, 0.7695, -34.3292694, 0.0295962, 0.1555962, 0.7695, -54.5121956, 0.7695, -66.9512177, 0.7695, 54.2682953, 0.0295962, 0.3205921, 0.7695, 84.4512253, 0.7695, 18.5975609, 0.7695, 20.1829281, 0.0295962, -0.0105745, 0.7695, 71.5853653, 0.7695, -78.5365906, 0.7695, -7.3170733, , , , , , , , , , , , , , , , , , , , , , 
0.0301154, 0.1260548, 0.783, 79.146347, 0.783, 45.1829262, 0.783, 0.6097561, 0.0301154, 0.1203479, 0.783, -99.3292694, 0.783, 58.2317085, 0.783, 0.3048781, 0.0301154, 0.1049058, 0.783, 30.9146347, 0.783, -0.5487805, 0.783, 56.9512215, 0.0301154, -0.0381018, 0.783, -32.6219521, 0.783, -65.9146347, 0.783, -24.3292694, 0.0301154, 0.0871138, 0.783, -79.3902435, 0.783, -12.560976, 0.783, -40.5487823, 0.0301154, 0.1770809, 0.783, -35.1829262, 0.783, -77.6219559, 0.783, 50.5487823, 0.0301154, 0.3172351, 0.783, 93.4146347, 0.783, 16.9512196, 0.783, 12.1951218, 0.0301154, -0.0078889, 0.783, 28.4146347, 0.783, -44.8780479, 0.783, -20, , , , , , , , , , , , , , , , , , , , , , 
0.0306346, 0.1367971, 0.7965, 56.2804909, 0.7965, 50.3048782, 0.7965, -28.780489, 0.0306346, 0.1159838, 0.7965, -84.5731735, 0.7965, 56.5853653, 0.7965, 28.5975609, 0.0306346, 0.112459, 0.7965, 48.3536606, 0.7965, -21.8902435, 0.7965, 28.5975609, 0.0306346, -0.0015106, 0.7965, -6.9512196, 0.7965, -10.9756098, 0.7965, -1.4634147, 0.0306346, 0.0948348, 0.7965, -118.1707382, 0.7965, 8.4146347, 0.7965, -31.0975609, 0.0306346, 0.1952087, 0.7965, -22.9878063, 0.7965, -61.5243912, 0.7965, 52.8048782, 0.0306346, 0.3261311, 0.7965, 105.7926865, 0.7965, 43.9024391, 0.7965, 0.1829268, 0.0306346, -0.0028534, 0.7965, 4.9390244, 0.7965, 26.9512196, 0.7965, -12.0731707, , , , , , , , , , , , , , , , , , , , , , 
0.0311538, 0.1461967, 0.81, 19.0243912, 0.81, 53.7195129, 0.81, -48.7195129, 0.0311538, 0.1065843, 0.81, -68.8414688, 0.81, 32.6829262, 0.81, 36.341465, 0.0311538, 0.1025559, 0.81, 60.3048782, 0.81, -40.7317085, 0.81, 8.4756098, 0.0311538, -0.0072175, 0.81, 10.3658543, 0.81, 34.1463432, 0.81, -14.3902445, 0.0311538, 0.0991989, 0.81, -153.5975647, 0.81, 58.9634171, 0.81, -2.5, 0.0311538, 0.2005798, 0.81, -17.9268303, 0.81, -34.9390259, 0.81, 50.7317085, 0.0311538, 0.3469444, 0.81, 110.4878082, 0.81, 80.3048782, 0.81, -6.7073174, 0.0311538, -0.0011749, 0.81, 11.5853662, 0.81, 56.2195129, 0.81, 1.3414634, , , , , , , , , , , , , , , , , , , , , , 
0.0316731, 0.1542535, 0.8235, -0.4878049, 0.8235, 46.2804871, 0.8235, -56.4634171, 0.0316731, 0.0897993, 0.8235, -42.6219521, 0.8235, 30.9756107, 0.8235, 37.1951218, 0.0316731, 0.0800641, 0.8235, 64.7560959, 0.8235, -81.4634171, 0.8235, -8.1097565, 0.0316731, -0.0337377, 0.8235, 12.9878054, 0.8235, 58.9024391, 0.8235, -37.1341476, 0.0316731, 0.1017166, 0.8235, -170.3048859, 0.8235, 110.4878082, 0.8235, 21.8292694, 0.0316731, 0.1901732, 0.8235, -14.5121956, 0.8235, -4.8170733, 0.8235, 41.2804871, 0.0316731, 0.3711147, 0.8235, 106.1585388, 0.8235, 95.18293, 0.8235, -9.5731707, 0.0316731, -0.0018463, 0.8235, 31.4024391, 0.8235, 48.4146347, 0.8235, 0.0609756, , , , , , , , , , , , , , , , , , , , , , 
0.0321923, 0.1643244, 0.837, -3.3536587, 0.837, 40.6707344, 0.837, -59.4512215, 0.0321923, 0.0582437, 0.837, -23.8414631, 0.837, 26.8902454, 0.837, 24.1463413, 0.0321923, 0.0641184, 0.837, 55.3048782, 0.837, -104.6951218, 0.837, -24.0243912, 0.0321923, -0.0387732, 0.837, 6.890244, 0.837, 42.1341476, 0.837, -48.7195129, 0.0321923, 0.0995346, 0.837, -181.3414612, 0.837, 135.0609741, 0.837, 35.9146347, 0.0321923, 0.1748989, 0.837, 3.0487804, 0.837, -1.2804878, 0.837, 28.841465, 0.0321923, 0.3889067, 0.837, 95.4878082, 0.837, 115.4268341, 0.837, -13.6585369, 0.0321923, -0.0005035, 0.837, 37.9878044, 0.837, 47.6829262, 0.837, 2.804878, , , , , , , , , , , , , , , , , , , , , , 
0.0327115, 0.1777523, 0.8505, 20.6097565, 0.8505, 50.0609779, 0.8505, -40.8536606, 0.0327115, 0.0243381, 0.8505, -27.0731716, 0.8505, 36.9512215, 0.8505, 6.7073174, 0.0327115, 0.0562295, 0.8505, 32.1341476, 0.8505, -105.4268341, 0.8505, -40.7926826, 0.0327115, -0.0223239, 0.8505, -6.3414636, 0.8505, -8.2926826, 0.8505, -29.8780499, 0.0327115, 0.0938277, 0.8505, -174.3292694, 0.8505, 129.5121918, 0.8505, 38.3536606, 0.0327115, 0.1619745, 0.8505, 36.341465, 0.8505, -37.2560997, 0.8505, 19.6951218, 0.0327115, 0.3932708, 0.8505, 94.7561035, 0.8505, 122.7439041, 0.8505, -11.4634151, 0.0327115, 0.002182, 0.8505, 36.7682953, 0.8505, 21.280489, 0.8505, 0.4878049, , , , , , , , , , , , , , , , , , , , , , 
0.0332308, 0.1905089, 0.864, 43.7195129, 0.864, 68.5365906, 0.864, -14.2682934, 0.0332308, 0.0058747, 0.864, -47.3780518, 0.864, 68.8414688, 0.864, -8.4756098, 0.0332308, 0.0381018, 0.864, 13.1707315, 0.864, -84.7560959, 0.864, -61.1585388, 0.0332308, -0.0085603, 0.864, -17.1341476, 0.864, -50.7317085, 0.864, -13.2317076, 0.0332308, 0.0918135, 0.864, -151.8292694, 0.864, 107.8658524, 0.864, 34.0853653, 0.0332308, 0.1519036, 0.864, 67.6219559, 0.864, -48.0487823, 0.864, 14.5731707, 0.0332308, 0.3865568, 0.864, 98.8414688, 0.864, 119.9390259, 0.864, -6.4024391, 0.0332308, 0.002182, 0.864, 21.7682934, 0.864, -28.1097565, 0.864, -8.3536587, , , , , , , , , , , , , , , , , , , , , , 
0.03375, 0.2015869, 0.8775, 43.5365868, 0.8775, 77.9878082, 0.8775, 3.8414636, 0.03375, -0.0052033, 0.8775, -62.5609779, 0.8775, 66.2195129, 0.8775, -22.1951218, 0.03375, 0.0065461, 0.8775, 8.5975609, 0.8775, -89.0243912, 0.8775, -91.2195129, 0.03375, -0.0115816, 0.8775, -17.6829281, 0.8775, -49.2073174, 0.8775, -12.0121956, 0.03375, 0.0891279, 0.8775, -128.2926788, 0.8775, 80.9756088, 0.8775, 28.2317085, 0.03375, 0.1438468, 0.8775, 98.0487823, 0.8775, -50, 0.8775, 14.2682934, 0.03375, 0.3701076, 0.8775, 104.9390259, 0.8775, 112.8048782, 0.8775, -0.7926829, 0.03375, 0.002182, 0.8775, 10.4878054, 0.8775, -37.3780479, 0.8775, -14.6951227, , , , , , , , , , , , , , , , , , , , , , 
0.0342692, 0.2109865, 0.891, 36.1585388, 0.891, 74.6951218, 0.891, 8.0487804, 0.0342692, -0.0184634, 0.891, -42.8048782, 0.891, 50.5487823, 0.891, -23.9634151, 0.0342692, -0.0271916, 0.891, 6.0975609, 0.891, -72.8048782, 0.891, -122.1951218, 0.0342692, -0.018967, 0.891, -13.9024391, 0.891, -11.8902445, 0.891, -19.0853672, 0.0342692, 0.0840925, 0.891, -110.7926865, 0.891, 70.7317123, 0.891, 25.2439022, 0.0342692, 0.1404898, 0.891, 126.8902435, 0.891, -42.5, 0.891, 11.1585369, 0.0342692, 0.3409018, 0.891, 107.8048782, 0.891, 101.0365906, 0.891, -3.5365853, 0.0342692, 0.0045319, 0.891, 17.9268303, 0.891, 5.7926831, 0.891, -19.6341476, , , , , , , , , , , , , , , , , , , , , , 
0.0347885, 0.2183719, 0.9045, 23.780489, 0.9045, 61.0365868, 0.9045, 0.9146342, 0.0347885, -0.0327306, 0.9045, -8.4146347, 0.9045, 49.5731735, 0.9045, -8.0487804, 0.0347885, -0.0525368, 0.9045, -4.4512196, 0.9045, -53.9634171, 0.9045, -146.7682953, 0.0347885, -0.0229953, 0.9045, -12.1951218, 0.9045, 40.6707344, 0.9045, -32.9268303, 0.0347885, 0.0797284, 0.9045, -100.4878082, 0.9045, 76.646347, 0.9045, 28.7195129, 0.0347885, 0.1453574, 0.9045, 138.7804871, 0.9045, -35.7317085, 0.9045, 7.5, 0.0347885, 0.2979324, 0.9045, 101.2804871, 0.9045, 84.2682953, 0.9045, -15.4878054, 0.0347885, 0.0043641, 0.9045, 32.3780479, 0.9045, 53.2926826, 0.9045, -18.2926826, , , , , , , , , , , , , , , , , , , , , , 
0.0353077, 0.2230716, 0.918, 4.1463413, 0.918, 62.8048782, 0.918, -1.5243902, 0.0353077, -0.0458228, 0.918, -2.6219513, 0.918, 43.3536606, 0.918, 4.6341462, 0.0353077, -0.0713359, 0.918, -30.4268303, 0.918, -22.0121956, 0.918, -162.9878082, 0.0353077, -0.0206455, 0.918, -5.7926831, 0.918, 66.9512177, 0.918, -41.2804871, 0.0353077, 0.0753643, 0.918, -109.2073212, 0.918, 79.6341476, 0.918, 44.2073174, 0.0353077, 0.1554284, 0.918, 159.2682953, 0.918, -14.1463413, 0.918, -6.890244, 0.0353077, 0.2432136, 0.918, 94.0243912, 0.918, 78.1097565, 0.918, -27.5, 0.0353077, 0.0003357, 0.918, 34.8780479, 0.918, 81.2804871, 0.918, -11.5243902, , , , , , , , , , , , , , , , , , , , , , 
0.0358269, 0.2230716, 0.9315, -0.2439024, 0.9315, 74.6341476, 0.9315, -0.7317073, 0.0358269, -0.054551, 0.9315, -13.9024391, 0.9315, 59.8170738, 0.9315, 8.3536587, 0.0358269, -0.0906386, 0.9315, -65.7317123, 0.9315, 8.1097565, 0.9315, -178.2317047, 0.0358269, -0.0209812, 0.9315, 2.8658538, 0.9315, 62.2560997, 0.9315, -29.8170738, 0.0358269, 0.0783856, 0.9315, -136.5243988, 0.9315, 93.4146347, 0.9315, 60.6097565, 0.0358269, 0.163653, 0.9315, 177.8048859, 0.9315, 13.1707315, 0.9315, -29.0853672, 0.0358269, 0.181445, 0.9315, 0, 0.9315, 0, 0.9315, 0, 0.0358269, -0.0031891, 0.9315, 20.4268303, 0.9315, 66.4024429, 0.9315, -9.8170738, , , , , , , , , , , , , , , , , , , , , , 
0.0363462, 0.2247501, 0.945, 6.5853658, 0.945, 79.3902435, 0.945, 0.2439024, 0.0363462, -0.0565652, 0.945, -25.060976, 0.945, 74.1463394, 0.945, 8.4756098, 0.0363462, -0.0971847, 0.945, -81.0365906, 0.945, 21.1585369, 0.945, -187.1341553, 0.0363462, -0.0448157, 0.945, 1.6463414, 0.945, 31.5853672, 0.945, -17.7439022, 0.0363462, 0.0911421, 0.945, -140.1829376, 0.945, 103.3536606, 0.945, 66.9512177, 0.0363462, 0.1663386, 0.945, 197.9878082, 0.945, 27.1341476, 0.945, -50.0609779, 0.0363462, 0.1166552, 0.945, 86.5243912, 0.945, 111.7073212, 0.945, -33.1707306, 0.0363462, -0.005539, 0.945, 12.3780489, 0.945, 23.780489, 0.945, -12.3780489, , , , , , , , , , , , , , , , , , , , , , 
0.0368654, 0.2277714, 0.9585, 12.9878054, 0.9585, 88.2317123, 0.9585, 1.4634147, 0.0368654, -0.0538796, 0.9585, -20.1829281, 0.9585, 78.0487823, 0.9585, 5.4268293, 0.0368654, -0.0710002, 0.9585, -98.9634171, 0.9585, 49.2682953, 0.9585, -203.9024506, 0.0368654, -0.0834211, 0.9585, -4.0853658, 0.9585, 3.9024391, 0.9585, -16.6463413, 0.0368654, 0.1045701, 0.9585, -127.6219559, 0.9585, 115.8536606, 0.9585, 76.2195129, 0.0368654, 0.1660029, 0.9585, 211.2804871, 0.9585, 57.0731735, 0.9585, -66.8902435, 0.0368654, 0.0481727, 0.9585, 81.4024429, 0.9585, 125.0609818, 0.9585, -32.2560997, 0.0368654, -0.0075532, 0.9585, 16.0365849, 0.9585, 1.5243902, 0.9585, -10.2439022, , , , , , , , , , , , , , , , , , , , , , 
0.0373846, 0.2286107, 0.972, 15.1829271, 0.972, 93.4756088, 0.972, 1.2804878, 0.0373846, -0.0486763, 0.972, -9.8780489, 0.972, 84.7560959, 0.972, -2.9268293, 0.0373846, -0.0209812, 0.972, -112.2561035, 0.972, 66.2804871, 0.972, -215.8536682, 0.0373846, -0.1164874, 0.972, -1.4634147, 0.972, -1.7073171, 0.972, -18.2317085, 0.0373846, 0.1065843, 0.972, -84.4512253, 0.972, 117.9878082, 0.972, 77.1341476, 0.0373846, 0.1676814, 0.972, 219.8170776, 0.972, 90.7317123, 0.972, -82.3780518, 0.0373846, -0.0236667, 0.972, 66.0365906, 0.972, 117.3780518, 0.972, -35.4878044, 0.0373846, -0.0085603, 0.972, 14.1463413, 0.972, 5.0609756, 0.972, -5.9756098, , , , , , , , , , , , , , , , , , , , , , 
0.0379038, 0.2247501, 0.9855, 16.4634151, 0.9855, 98.2926865, 0.9855, 1.402439, 0.0379038, -0.0394446, 0.9855, -15.9756098, 0.9855, 89.3902435, 0.9855, -6.6463418, 0.0379038, 0.0172885, 0.9855, -129.0243988, 0.9855, 74.6951218, 0.9855, -221.5243988, 0.0379038, -0.1438468, 0.9855, 4.6341462, 0.9855, 8.719512, 0.9855, -17.6219521, 0.0379038, 0.0958419, 0.9855, -47.5, 0.9855, 98.6585388, 0.9855, 68.6585388, 0.0379038, 0.1683528, 0.9855, 223.9634247, 0.9855, 124.9390259, 0.9855, -89.2682953, 0.0379038, -0.096849, 0.9855, 45.3048782, 0.9855, 101.2195129, 0.9855, -43.7195129, 0.0379038, -0.0085603, 0.9855, 12.0121956, 0.9855, 10.9146347, 0.9855, -3.9634147, , , , , , , , , , , , , , , , , , , , , , 
0.0384231, 0.219379, 0.999, 23.5975609, 0.999, 94.5731735, 0.999, 3.6585367, 0.0384231, -0.0265202, 0.999, -23.780489, 0.999, 86.8902435, 0.999, -8.4146347, 0.0384231, 0.0240024, 0.999, -132.5, 0.999, 92.9878082, 0.999, -217.7439117, 0.0384231, -0.1733883, 0.999, 8.9024391, 0.999, 29.2073174, 0.999, -19.4512196, 0.0384231, 0.0767071, 0.999, -26.0365868, 0.999, 62.8658562, 0.999, 62.1951218, 0.0384231, 0.1609674, 0.999, 221.7682953, 0.999, 164.9390259, 0.999, -85.18293, 0.0384231, -0.16701, 0.999, 28.3536587, 0.999, 90, 0.999, -53.7195129, 0.0384231, -0.0095674, 0.999, 12.9268293, 0.999, 31.7073174, 0.999, -3.7804878, , , , , , , , , , , , , , , , , , , , , , 
0.0389423, 0.2130007, 1.0125, 35.6097565, 1.0125, 88.9024429, 1.0125, 6.2195125, 0.0389423, -0.0112459, 1.0125, -37.8658562, 1.0125, 89.6951218, 1.0125, -7.3780489, 0.0389423, 0.0129244, 1.0125, -128.2926788, 1.0125, 115.4878082, 1.0125, -212.2561035, 0.0389423, -0.2084688, 1.0125, 11.8902445, 1.0125, 45.4878044, 1.0125, -21.8292694, 0.0389423, 0.0582437, 1.0125, -5.7317076, 1.0125, 33.7804871, 1.0125, 64.7560959, 0.0389423, 0.1461967, 1.0125, 214.3902435, 1.0125, 190.9146423, 1.0125, -76.7073212, 0.0389423, -0.2281071, 1.0125, 12.1951218, 1.0125, 81.7682953, 1.0125, -59.8780518, 0.0389423, -0.0137636, 1.0125, 17.7439022, 1.0125, 50.4878044, 1.0125, -3.5975611, , , , , , , , , , , , , , , , , , , , , , 
0.0394615, 0.2039368, 1.026, 41.4024391, 1.026, 86.646347, 1.026, 7.8048782, 0.0394615, 0.0092317, 1.026, -50.9146347, 1.026, 84.3902435, 1.026, -6.890244, 0.0394615, -0.0115816, 1.026, -127.8048782, 1.026, 159.6951294, 1.026, -205.2439117, 0.0394615, -0.223743, 1.026, 17.0121956, 1.026, 52.5, 1.026, -19.3292694, 0.0394615, 0.0515297, 1.026, 6.3414636, 1.026, 19.1463413, 1.026, 72.8048782, 0.0394615, 0.1270619, 1.026, 208.2926941, 1.026, 214.3292694, 1.026, -73.1097565, 0.0394615, -0.2845045, 1.026, -3.9024391, 1.026, 72.1951218, 1.026, -62.68293, 0.0394615, -0.0199741, 1.026, 14.8780489, 1.026, 59.3292694, 1.026, -1.7073171, , , , , , , , , , , , , , , , , , , , , , 
0.0399808, 0.1931945, 1.0395, 38.3536606, 1.0395, 86.2804871, 1.0395, 6.7073174, 0.0399808, 0.0372625, 1.0395, -55.8536606, 1.0395, 79.5121994, 1.0395, -6.6463418, 0.0399808, -0.0708324, 1.0395, -133.5365906, 1.0395, 190.8536682, 1.0395, -197.9878082, 0.0399808, -0.2022583, 1.0395, 18.9634151, 1.0395, 48.5365868, 1.0395, -16.5243912, 0.0399808, 0.0555581, 1.0395, 9.8170738, 1.0395, 12.0731707, 1.0395, 79.8780518, 0.0399808, 0.103563, 1.0395, 203.2317047, 1.0395, 228.1097565, 1.0395, -72.68293, 0.0399808, -0.3382162, 1.0395, -13.0487804, 1.0395, 68.2317123, 1.0395, -62.9878082, 0.0399808, -0.0238346, 1.0395, 9.5121956, 1.0395, 65.3658524, 1.0395, -0.4878049, , , , , , , , , , , , , , , , , , , , , , 
0.0405, 0.1790951, 1.053, 32.3780479, 1.053, 85.2439041, 1.053, 4.2682929, 0.0405, 0.0676432, 1.053, -58.4146347, 1.053, 79.2682953, 1.053, -6.0365853, 0.0405, -0.1475395, 1.053, -139.146347, 1.053, 200.7317047, 1.053, -193.1097565, 0.0405, -0.1874876, 1.053, 18.2317085, 1.053, 44.4512215, 1.053, -17.3170738, 0.0405, 0.0652934, 1.053, 16.3414631, 1.053, 9.8780489, 1.053, 84.0243912, 0.0405, 0.079057, 1.053, 200.9756165, 1.053, 232.4390259, 1.053, -73.2317123, 0.0405, -0.3837034, 1.053, 0, 1.053, 0, 1.053, 0, 0.0405, -0.0229953, 1.053, 7.9268293, 1.053, 60.5487823, 1.053, -0.4268293, , , , , , , , , , , , , , , , , , , , , , 
0.0410192, 0.1592889, 1.0665, 29.6341476, 1.0665, 80.0609741, 1.0665, 4.6951222, 0.0410192, 0.100206, 1.0665, -55.4268303, 1.0665, 78.2317123, 1.0665, -4.390244, 0.0410192, -0.179263, 1.0665, -142.3170776, 1.0665, 200.7926941, 1.0665, -193.7195129, 0.0410192, -0.2103151, 1.0665, 14.2682934, 1.0665, 34.9390259, 1.0665, -21.0365868, 0.0410192, 0.0802319, 1.0665, 25.4268303, 1.0665, 15.9756098, 1.0665, 87.2560959, 0.0410192, 0.0555581, 1.0665, 0, 1.0665, 0, 1.0665, 0, 0.0410192, -0.4218051, 1.0665, -55.8536606, 1.0665, 64.1463394, 1.0665, -55.18293, 0.0410192, -0.0206455, 1.0665, 10.1829271, 1.0665, 48.1707344, 1.0665, -1.9512196, , , , , , , , , , , , , , , , , , , , , , 
0.0415385, 0.1421683, 1.08, 31.5853672, 1.08, 72.9878082, 1.08, 5.670732, 0.0415385, 0.1287404, 1.08, -38.7195129, 1.08, 75.3048782, 1.08, -4.9390244, 0.0415385, -0.1629816, 1.08, -137.0731812, 1.08, 209.9390259, 1.08, -193.6585388, 0.0415385, -0.2532845, 1.08, 11.5853662, 1.08, 21.2195129, 1.08, -20.2439022, 0.0415385, 0.1003738, 1.08, 34.3902435, 1.08, 33.4756088, 1.08, 93.7195129, 0.0415385, 0.0359197, 1.08, 202.7439117, 1.08, 233.6585388, 1.08, -69.2682953, 0.0415385, -0.4573892, 1.08, -72.8658524, 1.08, 71.2804871, 1.08, -50.0609779, 0.0415385, -0.0203098, 1.08, 7.9268293, 1.08, 33.5975609, 1.08, -1.5243902, , , , , , , , , , , , , , , , , , , , , , 
0.0420577, 0.1376364, 1.0935, 33.2317085, 1.0935, 65.5487823, 1.0935, 6.9512196, 0.0420577, 0.1535821, 1.0935, -39.5731735, 1.0935, 60.6097565, 1.0935, -12.1951218, 0.0420577, -0.1384756, 1.0935, -133.7804871, 1.0935, 207.8048859, 1.0935, -178.1097565, 0.0420577, -0.2814832, 1.0935, 14.2073174, 1.0935, 16.4634151, 1.0935, -15.9756098, 0.0420577, 0.1149767, 1.0935, 40.2439041, 1.0935, 46.2804871, 1.0935, 99.0243912, 0.0420577, 0.0193027, 1.0935, 197.9878082, 1.0935, 210.4268341, 1.0935, -66.5243912, 0.0420577, -0.4902876, 1.0935, -88.0487823, 1.0935, 84.2073212, 1.0935, -46.2804871, 0.0420577, -0.0196384, 1.0935, 5.7926831, 1.0935, 28.5365868, 1.0935, 1.4634147, , , , , , , , , , , , , , , , , , , , , , 
0.0425769, 0.1408255, 1.107, 35.2439041, 1.107, 47.8658562, 1.107, 6.8292685, 0.0425769, 0.1775845, 1.107, -51.6463432, 1.107, 56.0365868, 1.107, -17.2560978, 0.0425769, -0.1284047, 1.107, -128.0487823, 1.107, 144.3902435, 1.107, -158.6585388, 0.0425769, -0.2754406, 1.107, 19.2073174, 1.107, 23.3536587, 1.107, -16.4634151, 0.0425769, 0.1032273, 1.107, 60.2439041, 1.107, 57.0731735, 1.107, 105.18293, 0.0425769, 0.0065461, 1.107, 180.9146423, 1.107, 163.2317047, 1.107, -73.5365906, 0.0425769, -0.5171435, 1.107, -99.6951218, 1.107, 103.7195129, 1.107, -41.6463432, 0.0425769, -0.0198062, 1.107, 4.6951222, 1.107, 37.0121956, 1.107, 4.7560978, , , , , , , , , , , , , , , , , , , , , , 
0.0430962, 0.139147, 1.1205, 39.1463432, 1.1205, 32.1951218, 1.1205, 1.7682927, 0.0430962, 0.1995727, 1.1205, -63.7195129, 1.1205, 52.7439041, 1.1205, -16.1585369, 0.0430962, -0.1257191, 1.1205, -115.8536606, 1.1205, 45.3658562, 1.1205, -148.4756165, 0.0430962, -0.2364996, 1.1205, 22.2560978, 1.1205, 34.8170738, 1.1205, -19.7560978, 0.0430962, 0.061265, 1.1205, 70.6707306, 1.1205, 62.7439041, 1.1205, 102.5609818, 0.0430962, 0.0025177, 1.1205, 164.0243988, 1.1205, 99.5121994, 1.1205, -83.3536606, 0.0430962, -0.5394675, 1.1205, -103.8414688, 1.1205, 114.6341476, 1.1205, -36.5853653, 0.0430962, -0.01561, 1.1205, 4.8780489, 1.1205, 52.8048782, 1.1205, 4.8170733, , , , , , , , , , , , , , , , , , , , , , 
0.0436154, 0.131426, 1.134, 41.0365868, 1.134, 26.8292694, 1.134, -1.7073171, 0.0436154, 0.2203861, 1.134, -67.8048782, 1.134, 34.2073174, 1.134, -15.3658543, 0.0436154, -0.1138018, 1.134, -111.4634171, 1.134, 11.5243902, 1.134, -139.3902435, 0.0436154, -0.2022583, 1.134, 22.2560978, 1.134, 44.0243912, 1.134, -20.3048782, 0.0436154, 0.0038605, 1.134, 79.6951218, 1.134, 67.0731735, 1.134, 102.3170776, 0.0436154, 0.0031891, 1.134, 142.4390259, 1.134, 39.3902435, 1.134, -90.6097565, 0.0436154, -0.5607843, 1.134, -103.9634171, 1.134, 104.5731735, 1.134, -37.1951218, 0.0436154, -0.0025177, 1.134, 5.1829271, 1.134, 57.7439041, 1.134, 4.0243902, , , , , , , , , , , , , , , , , , , , , , 
0.0441346, 0.1250477, 1.1475, 43.841465, 1.1475, 21.280489, 1.1475, -8.1097565, 0.0441346, 0.2381781, 1.1475, -69.2682953, 1.1475, 25.3658543, 1.1475, -16.0975609, 0.0441346, -0.0871138, 1.1475, -99.6341476, 1.1475, -44.8170738, 1.1475, -114.2682953, 0.0441346, -0.1958801, 1.1475, 21.5853672, 1.1475, 40.2439041, 1.1475, -18.5365849, 0.0441346, -0.0515297, 1.1475, 75.3658524, 1.1475, 62.7439041, 1.1475, 100.4878082, 0.0441346, 0.0050355, 1.1475, 110.6707306, 1.1475, 3.4756098, 1.1475, -87.8658524, 0.0441346, -0.5779049, 1.1475, -105.7926865, 1.1475, 76.8292694, 1.1475, -39.3902435, 0.0441346, 0.0142672, 1.1475, 4.0853658, 1.1475, 58.7804909, 1.1475, 1.8902439, , , , , , , , , , , , , , , , , , , , , , 
0.0446538, 0.1220264, 1.161, 47.9878044, 1.161, 18.2317085, 1.161, -11.9512196, 0.0446538, 0.2489204, 1.161, -71.0365906, 1.161, 15.3658543, 1.161, -17.560976, 0.0446538, -0.079057, 1.161, -82.8048782, 1.161, -50.9146347, 1.161, -84.6951218, 0.0446538, -0.1666743, 1.161, 18.3536587, 1.161, 24.2682934, 1.161, -16.8292694, 0.0446538, -0.0955062, 1.161, 61.9512215, 1.161, 44.6341476, 1.161, 92.68293, 0.0446538, 0.0045319, 1.161, 78.7195129, 1.161, -4.6951222, 1.161, -77.9878082, 0.0446538, -0.5883116, 1.161, -106.7073212, 1.161, 47.4390259, 1.161, -37.3780479, 0.0446538, 0.0263523, 1.161, 2.5609756, 1.161, 46.0365868, 1.161, 1.4634147, , , , , , , , , , , , , , , , , , , , , , 
0.0451731, 0.1176623, 1.1745, 51.0365868, 1.1745, 15.8536587, 1.1745, -12.7439032, 0.0451731, 0.2563058, 1.1745, -68.0487823, 1.1745, 17.5, 1.1745, -16.8902435, 0.0451731, -0.0929885, 1.1745, -73.6585388, 1.1745, -22.8048782, 1.1745, -57.5, 0.0451731, -0.1203479, 1.1745, 14.5121956, 1.1745, 5.1219511, 1.1745, -17.560976, 0.0451731, -0.1193408, 1.1745, 49.3292694, 1.1745, 19.6341476, 1.1745, 80.1219559, 0.0451731, 0.0016785, 1.1745, 55.18293, 1.1745, 5.4268293, 1.1745, -62.8658562, 0.0451731, -0.5940185, 1.1745, -100.4268341, 1.1745, 34.2073174, 1.1745, -30.2439022, 0.0451731, 0.0323949, 1.1745, 5.0609756, 1.1745, 21.6463413, 1.1745, 3.3536587, , , , , , , , , , , , , , , , , , , , , , 
0.0456923, 0.1117876, 1.188, 49.3902435, 1.188, 16.9512196, 1.188, -11.8292685, 0.0456923, 0.2643626, 1.188, -61.4634171, 1.188, 24.3292694, 1.188, -16.6463413, 0.0456923, -0.0944991, 1.188, -64.6341476, 1.188, 5, 1.188, -29.9390259, 0.0456923, -0.1126268, 1.188, 11.0365858, 1.188, -3.1707318, 1.188, -20.8536587, 0.0456923, -0.1163195, 1.188, 47.0121956, 1.188, -3.9024391, 1.188, 62.9268303, 0.0456923, -0.0052033, 1.188, 30, 1.188, 20.4268303, 1.188, -45.7926826, 0.0456923, -0.5987182, 1.188, -89.8780518, 1.188, 19.8780499, 1.188, -22.3170738, 0.0456923, 0.0384375, 1.188, 11.0975609, 1.188, 8.9634151, 1.188, 4.4512196, , , , , , , , , , , , , , , , , , , , , , 
0.0462115, 0.1045701, 1.2015, 42.2560997, 1.2015, 18.8414631, 1.2015, -9.6951218, 0.0462115, 0.2704051, 1.2015, -51.5853653, 1.2015, 28.9024391, 1.2015, -16.280489, 0.0462115, -0.0710002, 1.2015, -56.1585388, 1.2015, 20.4268303, 1.2015, -1.9512196, 0.0462115, -0.1116197, 1.2015, 11.219512, 1.2015, 5.3658538, 1.2015, -25.4878063, 0.0462115, -0.0834211, 1.2015, 55.3048782, 1.2015, -27.8658543, 1.2015, 45.2439041, 0.0462115, -0.021149, 1.2015, 15.8536587, 1.2015, 28.1707325, 1.2015, -39.4512215, 0.0462115, -0.6057679, 1.2015, -77.68293, 1.2015, -3.6585367, 1.2015, -17.1951218, 0.0462115, 0.0451514, 1.2015, 14.9390249, 1.2015, 12.8658543, 1.2015, 4.0853658, , , , , , , , , , , , , , , , , , , , , , 
0.0467308, 0.0951705, 1.215, 33.9634171, 1.215, 23.780489, 1.215, -6.5853658, 0.0467308, 0.2663767, 1.215, -40.7317085, 1.215, 34.1463432, 1.215, -15.5487804, 0.0467308, -0.0498512, 1.215, -41.6463432, 1.215, 12.9878054, 1.215, 22.0121956, 0.0467308, -0.0513619, 1.215, 12.8658543, 1.215, 29.8780499, 1.215, -31.5853672, 0.0467308, -0.0337377, 1.215, 63.5975609, 1.215, -56.0975609, 1.215, 27.4390259, 0.0467308, -0.0414588, 1.215, -12.6829271, 1.215, 33.1707306, 1.215, -29.3292694, 0.0467308, -0.6111391, 1.215, -71.4634171, 1.215, -25, 1.215, -16.4634151, 0.0467308, 0.0476692, 1.215, 18.7195129, 1.215, 35.6097565, 1.215, 2.6219513, , , , , , , , , , , , , , , , , , , , , , 
0.04725, 0.085771, 1.2285, 28.5975609, 1.2285, 33.2926826, 1.2285, -1.1585366, 0.04725, 0.2542916, 1.2285, -30.6097565, 1.2285, 45.3048782, 1.2285, -14.0853662, 0.04725, -0.0374304, 1.2285, -22.3780499, 1.2285, -7.0731707, 1.2285, 45.3658562, 0.04725, 0.0699931, 1.2285, 13.2926836, 1.2285, 45.1219521, 1.2285, -35.4268303, 0.04725, 0.005539, 1.2285, 64.8170776, 1.2285, -77.6219559, 1.2285, 10.7926836, 0.04725, -0.0569009, 1.2285, -37.3780479, 1.2285, 27.9878063, 1.2285, -16.7682934, 0.04725, -0.6097963, 1.2285, -68.5365906, 1.2285, -41.4024391, 1.2285, -16.5243912, 0.04725, 0.0399481, 1.2285, 25.5487804, 1.2285, 63.1707344, 1.2285, 0.4268293, , , , , , , , , , , , , , , , , , , , , , 
0.0477692, 0.0807355, 1.242, 26.4634151, 1.242, 46.2804871, 1.242, 6.2195125, 0.0477692, 0.2408637, 1.242, -26.5243912, 1.242, 48.9634171, 1.242, -14.2682934, 0.0477692, 0.0337377, 1.242, 0.1219512, 1.242, -4.1463413, 1.242, 74.6951218, 0.0477692, 0.1955444, 1.242, 11.9512196, 1.242, 71.5243912, 1.242, -42.6829262, 0.0477692, 0.0223239, 1.242, 61.0975609, 1.242, -80.4268341, 1.242, 2.4390244, 0.0477692, -0.0642863, 1.242, -69.2682953, 1.242, 18.8414631, 1.242, 0.1829268, 0.0477692, -0.603418, 1.242, -66.4634171, 1.242, -47.2560997, 1.242, -14.5731707, 0.0477692, 0.0253452, 1.242, 34.0853653, 1.242, 84.2073212, 1.242, -1.5853659, , , , , , , , , , , , , , , , , , , , , , 
0.0482885, 0.0763714, 1.2555, 23.5365868, 1.2555, 48.5975609, 1.2555, 11.4024391, 0.0482885, 0.2281071, 1.2555, -25.3048782, 1.2555, 45.3048782, 1.2555, -14.8780489, 0.0482885, 0.121355, 1.2555, 3.4146342, 1.2555, 24.1463413, 1.2555, 78.1097565, 0.0482885, 0.2697337, 1.2555, 8.4756098, 1.2555, 70.5487823, 1.2555, -46.5853653, 0.0482885, 0.0250095, 1.2555, 60.2439041, 1.2555, -73.5365906, 1.2555, 1.2804878, 0.0482885, -0.064622, 1.2555, -72.5609741, 1.2555, 3.9634147, 1.2555, 14.3292685, 0.0482885, -0.5951934, 1.2555, -66.0975647, 1.2555, -47.0731735, 1.2555, -13.4756098, 0.0482885, 0.0117494, 1.2555, 35.3048782, 1.2555, 74.6951218, 1.2555, -1.3414634, , , , , , , , , , , , , , , , , , , , , , 
0.0488077, 0.0733501, 1.269, 21.7682934, 1.269, 45.5487823, 1.269, 12.6829271, 0.0488077, 0.212665, 1.269, -22.5, 1.269, 40.0609779, 1.269, -15.5487804, 0.0488077, 0.1414969, 1.269, 1.3414634, 1.269, 20.1219521, 1.269, 33.4756088, 0.0488077, 0.2979324, 1.269, 4.2682929, 1.269, 44.6341476, 1.269, -46.5243912, 0.0488077, 0.0223239, 1.269, 61.5243912, 1.269, -60.6097565, 1.269, -1.7073171, 0.0488077, -0.0619364, 1.269, -37.0121956, 1.269, -1.402439, 1.269, 8.2926826, 0.0488077, -0.5883116, 1.269, 0, 1.269, 0, 1.269, 0, 0.0488077, 0.0001678, 1.269, 35.3658562, 1.269, 44.5121956, 1.269, 0.1829268, , , , , , , , , , , , , , , , , , , , , , 
0.0493269, 0.0716716, 1.2825, 20.4878044, 1.2825, 40.7317085, 1.2825, 12.1951218, 0.0493269, 0.1905089, 1.2825, -19.7560978, 1.2825, 34.0853653, 1.2825, -16.2195129, 0.0493269, 0.0950027, 1.2825, -18.780489, 1.2825, -33.6585388, 1.2825, -19.8780499, 0.0493269, 0.3110246, 1.2825, 0.4268293, 1.2825, 22.1341476, 1.2825, -45.3658562, 0.0493269, 0.0159457, 1.2825, 81.0365906, 1.2825, -54.6951218, 1.2825, -3.8414636, 0.0493269, -0.06009, 1.2825, 6.890244, 1.2825, 10.7926836, 1.2825, -19.2073174, 0.0493269, -0.5795834, 1.2825, -69.7560959, 1.2825, -39.4512215, 1.2825, -4.9390244, 0.0493269, -0.0109102, 1.2825, 36.2804871, 1.2825, 19.5731716, 1.2825, 1.0365853, , , , , , , , , , , , , , , , , , , , , , 
0.0498462, 0.0730144, 1.296, 17.3780499, 1.296, 26.5243912, 1.296, 10.060976, 0.0498462, 0.1656672, 1.296, -18.2317085, 1.296, 26.3414631, 1.296, -13.780488, 0.0498462, 0.023331, 1.296, -39.2682953, 1.296, -2.0121951, 1.296, -20, 0.0498462, 0.3096818, 1.296, -1.5243902, 1.296, 15.6707325, 1.296, -45.3048782, 0.0498462, 0.0105745, 1.296, 106.646347, 1.296, -56.4634171, 1.296, -0.1219512, 0.0498462, -0.0605936, 1.296, 26.0975609, 1.296, 37.8048782, 1.296, -26.0365868, 0.0498462, -0.5681697, 1.296, -72.4390259, 1.296, -54.6951218, 1.296, -7.6829271, 0.0498462, -0.0151064, 1.296, 37.5609779, 1.296, 15.7926836, 1.296, 0.4878049, , , , , , , , , , , , , , , , , , , , , , 
0.0503654, 0.072343, 1.3095, 12.1341467, 1.3095, 14.1463413, 1.3095, 5.0609756, 0.0503654, 0.1408255, 1.3095, -14.0853662, 1.3095, 17.560976, 1.3095, -11.9512196, 0.0503654, -0.0639506, 1.3095, -21.280489, 1.3095, 30.7317085, 1.3095, 15.7926836, 0.0503654, 0.2777905, 1.3095, -1.5243902, 1.3095, 24.3292694, 1.3095, -48.4146347, 0.0503654, 0.0052033, 1.3095, 105.0609818, 1.3095, -38.4146347, 1.3095, 4.7560978, 0.0503654, -0.0622721, 1.3095, -11.8292685, 1.3095, 75.4878082, 1.3095, -9.2073174, 0.0503654, -0.5525597, 1.3095, -87.3780518, 1.3095, -55.6097565, 1.3095, -9.6341467, 0.0503654, -0.0166171, 1.3095, 40.4878044, 1.3095, 20.9146347, 1.3095, -0.9146342, , , , , , , , , , , , , , , , , , , , , , 
0.0508846, 0.072343, 1.323, 5.9146342, 1.323, 10.3658543, 1.323, 0.1219512, 0.0508846, 0.1166552, 1.323, -12.1951218, 1.323, 12.6219511, 1.323, -11.6463413, 0.0508846, -0.1465324, 1.323, -15, 1.323, 96.5853653, 1.323, 45.6707344, 0.0508846, 0.2373388, 1.323, 1.097561, 1.323, 38.1097565, 1.323, -51.2804909, 0.0508846, -0.0045319, 1.323, 63.9634171, 1.323, 5.7926831, 1.323, 15, 0.0508846, -0.061265, 1.323, -43.6585388, 1.323, 114.6341476, 1.323, 7.3170733, 0.0508846, -0.5337606, 1.323, -88.4756088, 1.323, -6.890244, 1.323, -5.4878049, 0.0508846, -0.0229953, 1.323, 41.6463432, 1.323, 34.2682953, 1.323, -0.6097561, , , , , , , , , , , , , , , , , , , , , , 
0.0514038, 0.0720073, 1.3365, 1.8902439, 1.3365, 7.1951222, 1.3365, 0.4268293, 0.0514038, 0.0923171, 1.3365, -6.5853658, 1.3365, -3.9024391, 1.3365, -11.9512196, 0.0514038, -0.1693599, 1.3365, -14.1463413, 1.3365, 99.146347, 1.3365, 51.341465, 0.0514038, 0.2180362, 1.3365, 2.1341465, 1.3365, 40.0609779, 1.3365, -49.4512215, 0.0514038, -0.0167849, 1.3365, 33.0487823, 1.3365, 35.0609779, 1.3365, 27.1951218, 0.0514038, -0.064622, 1.3365, -46.1585388, 1.3365, 103.1707306, 1.3365, 11.6463413, 0.0514038, -0.5104295, 1.3365, -53.6585388, 1.3365, 47.0731735, 1.3365, 0.4268293, 0.0514038, -0.0323949, 1.3365, 39.3292694, 1.3365, 42.6829262, 1.3365, -0.1829268, , , , , , , , , , , , , , , , , , , , , , 
0.0519231, 0.068986, 1.35, -1.402439, 1.35, -7.1341467, 1.35, 6.6463418, 0.0519231, 0.0676432, 1.35, -2.6829269, 1.35, -19.8780499, 1.35, -6.3414636, 0.0519231, -0.1441825, 1.35, 0, 1.35, 0, 1.35, 0, 0.0519231, 0.2066224, 1.35, 0.0609756, 1.35, 33.4146347, 1.35, -47.0121956, 0.0519231, -0.0287022, 1.35, 35.1829262, 1.35, 44.0243912, 1.35, 31.8902454, 0.0519231, -0.0773785, 1.35, -37.5, 1.35, 78.9634171, 1.35, 8.0487804, 0.0519231, -0.4855879, 1.35, -15.7926836, 1.35, 62.8048782, 1.35, 1.2195122, 0.0519231, -0.0392767, 1.35, 37.2560997, 1.35, 35, 1.35, -1.1585366, , , , , , , , , , , , , , , , , , , , , , 
0.0524423, 0.0622721, 1.3635, -3.1707318, 1.3635, -10.5487804, 1.3635, 17.3170738, 0.0524423, 0.0428016, 1.3635, 5.0609756, 1.3635, -20.060976, 1.3635, -1.1585366, 0.0524423, -0.1344472, 1.3635, 0, 1.3635, 0, 1.3635, 0, 0.0524423, 0.184802, 1.3635, -5.5487804, 1.3635, 26.5243912, 1.3635, -48.3536606, 0.0524423, -0.0357519, 1.3635, 53.841465, 1.3635, 44.4512215, 1.3635, 29.7560978, 0.0524423, -0.0944991, 1.3635, -21.280489, 1.3635, 7.6219516, 1.3635, 2.8658538, 0.0524423, -0.4661173, 1.3635, -19.0853672, 1.3635, 57.0121956, 1.3635, -2.5609756, 0.0524423, -0.0441444, 1.3635, 40.3048782, 1.3635, 22.8048782, 1.3635, -3.9024391, , , , , , , , , , , , , , , , , , , , , , 
0.0529615, 0.054551, 1.377, -8.0487804, 1.377, -6.1585369, 1.377, 27.560976, 0.0529615, 0.0186313, 1.377, 16.9512196, 1.377, -14.2682934, 1.377, -3.5975611, 0.0529615, -0.1482109, 1.377, 2.3780489, 1.377, -43.6585388, 1.377, 32.3170738, 0.0529615, 0.1562676, 1.377, -12.560976, 1.377, 26.0365868, 1.377, -52.3780518, 0.0529615, -0.0364233, 1.377, 56.341465, 1.377, 42.7439041, 1.377, 27.9268303, 0.0529615, -0.1122911, 1.377, -29.3292694, 1.377, -26.3414631, 1.377, 1.1585366, 0.0529615, -0.4567178, 1.377, -44.3292694, 1.377, 45.3048782, 1.377, -6.5243902, 0.0529615, -0.0493477, 1.377, 47.0121956, 1.377, 21.1585369, 1.377, -8.0487804, , , , , , , , , , , , , , , , , , , , , , 
0.0534808, 0.0468299, 1.3905, -19.4512196, 1.3905, 5.1219511, 1.3905, 38.0487823, 0.0534808, -0.0010071, 1.3905, 33.2926826, 1.3905, -4.6341462, 1.3905, -13.5975609, 0.0534808, -0.1347829, 1.3905, 0.1219512, 1.3905, -35.5487823, 1.3905, 38.2926826, 0.0534808, 0.1352865, 1.3905, -17.9878044, 1.3905, 38.0487823, 1.3905, -54.2682953, 0.0534808, -0.0387732, 1.3905, 41.8902435, 1.3905, 32.1341476, 1.3905, 25.6097565, 0.0534808, -0.1270619, 1.3905, -37.3780479, 1.3905, -9.7560978, 1.3905, -0.1219512, 0.0534808, -0.4516823, 1.3905, -61.8292694, 1.3905, 37.0121956, 1.3905, -3.9634147, 0.0534808, -0.0542153, 1.3905, 52.5609779, 1.3905, 27.9268303, 1.3905, -14.2682934, , , , , , , , , , , , , , , , , , , , , , 
0.054, 0.040116, 1.404, -22.9878063, 1.404, 22.8658543, 1.404, 49.7560997, 0.054, -0.014435, 1.404, 51.2195129, 1.404, 10.4878054, 1.404, -21.2195129, 0.054, -0.0924849, 1.404, 4.8170733, 1.404, 3.5365853, 1.404, 39.3292694, 0.054, 0.1183337, 1.404, -20.3658543, 1.404, 62.5, 1.404, -49.6951218, 0.054, -0.047837, 1.404, 37.8048782, 1.404, 22.0731716, 1.404, 20, 0.054, -0.13579, 1.404, -39.5731735, 1.404, 16.7073174, 1.404, 10.9146347, 0.054, -0.4399329, 1.404, -66.8902435, 1.404, 25.9756107, 1.404, 5.3048782, 0.054, -0.0547189, 1.404, 52.9878044, 1.404, 41.8292694, 1.404, -24.6951218, , , , , , , , , , , , , , , , , , , , , , 
0.0545192, 0.0287022, 1.4175, -19.5121956, 1.4175, 39.3902435, 1.4175, 57.3780518, 0.0545192, -0.0219883, 1.4175, 64.5731735, 1.4175, 13.1097565, 1.4175, -24.2682934, 0.0545192, -0.0565652, 1.4175, 7.4390244, 1.4175, 31.4024391, 1.4175, 42.1951218, 0.0545192, 0.0830854, 1.4175, -20.7926826, 1.4175, 74.7560959, 1.4175, -47.3170738, 0.0545192, -0.0485084, 1.4175, 42.1341476, 1.4175, 6.4024391, 1.4175, 6.2195125, 0.0545192, -0.139147, 1.4175, -42.4390259, 1.4175, 44.3902435, 1.4175, 20.7317085, 0.0545192, -0.4191196, 1.4175, -58.1097565, 1.4175, 15.5487804, 1.4175, 13.9024391, 0.0545192, -0.0535439, 1.4175, 50, 1.4175, 66.3414612, 1.4175, -35.6097565, , , , , , , , , , , , , , , , , , , , , , 
0.0550385, 0.0159457, 1.431, -18.1707325, 1.431, 36.2195129, 1.431, 64.4512177, 0.0550385, -0.0273594, 1.431, 71.4634171, 1.431, 8.6585369, 1.431, -26.2195129, 0.0550385, -0.0461585, 1.431, 6.7073174, 1.431, 39.6341476, 1.431, 44.2682953, 0.0550385, 0.0270237, 1.431, -23.780489, 1.431, 92.1951218, 1.431, -46.341465, 0.0550385, -0.0330663, 1.431, 55.9756126, 1.431, 0.3658537, 1.431, -2.0731707, 0.0550385, -0.1371328, 1.431, -45.7317085, 1.431, 62.7439041, 1.431, 19.6951218, 0.0550385, -0.3904173, 1.431, -42.8658562, 1.431, 5.2439027, 1.431, 15.6707325, 0.0550385, -0.0528725, 1.431, 52.1951218, 1.431, 85.3658524, 1.431, -42.1341476, , , , , , , , , , , , , , , , , , , , , , 
0.0555577, 0.0058747, 1.4445, -18.2317085, 1.4445, 31.5243912, 1.4445, 68.6585388, 0.0555577, -0.0350805, 1.4445, 70.8536606, 1.4445, 17.8658543, 1.4445, -29.3292694, 0.0555577, -0.0543832, 1.4445, 3.7804878, 1.4445, 40.8536606, 1.4445, 40, 0.0555577, -0.021149, 1.4445, -26.9512196, 1.4445, 107.9878082, 1.4445, -48.5365868, 0.0555577, -0.0186313, 1.4445, 60.3048782, 1.4445, 7.0121951, 1.4445, -0.5487805, 0.0555577, -0.1309224, 1.4445, -42.9268303, 1.4445, 63.7195129, 1.4445, 14.4512196, 0.0555577, -0.3635615, 1.4445, -35.1219521, 1.4445, 6.280488, 1.4445, 9.4512196, 0.0555577, -0.0515297, 1.4445, 54.0853653, 1.4445, 90.7317123, 1.4445, -44.3292694, , , , , , , , , , , , , , , , , , , , , , 
0.0560769, -0.0001678, 1.458, -22.5, 1.458, 31.5243912, 1.458, 75.9756088, 0.0560769, -0.0431373, 1.458, 72.0121994, 1.458, 28.2317085, 1.458, -31.2195129, 0.0560769, -0.057908, 1.458, -3.1707318, 1.458, 34.4512215, 1.458, 33.5975609, 0.0560769, -0.0344091, 1.458, -26.6463413, 1.458, 119.9390259, 1.458, -50.1829262, 0.0560769, -0.0132601, 1.458, 55, 1.458, 24.4512196, 1.458, 8.9634151, 0.0560769, -0.1176623, 1.458, -34.8780479, 1.458, 57.8048782, 1.458, 7.5, 0.0560769, -0.3432517, 1.458, -39.0243912, 1.458, 22.560976, 1.458, 1.2804878, 0.0560769, -0.0486763, 1.458, 54.3902435, 1.458, 97.5609741, 1.458, -47.1951218, , , , , , , , , , , , , , , , , , , , , , 
0.0565962, -0.0062104, 1.4715, -31.2195129, 1.4715, 49.3902435, 1.4715, 82.7439041, 0.0565962, -0.0446479, 1.4715, 74.2682953, 1.4715, 34.5121956, 1.4715, -33.6585388, 0.0565962, -0.0458228, 1.4715, -2.9878049, 1.4715, 30.1829281, 1.4715, 34.3902435, 0.0565962, -0.0330663, 1.4715, -25.060976, 1.4715, 133.4146423, 1.4715, -44.0243912, 0.0565962, -0.0068818, 1.4715, 46.2195129, 1.4715, 40.8536606, 1.4715, 20.7317085, 0.0565962, -0.0995346, 1.4715, -35.7926826, 1.4715, 47.0121956, 1.4715, 5.1829271, 0.0565962, -0.3244526, 1.4715, -40.9146347, 1.4715, 42.9268303, 1.4715, -2.1341465, 0.0565962, -0.0431373, 1.4715, 48.9634171, 1.4715, 109.6341476, 1.4715, -52.3780518, , , , , , , , , , , , , , , , , , , , , , 
0.0571154, -0.0166171, 1.485, -34.3292694, 1.485, 65, 1.485, 87.5, 0.0571154, -0.0421302, 1.485, 79.3292694, 1.485, 36.7682953, 1.485, -37.3780479, 0.0571154, -0.0253452, 1.485, 1.3414634, 1.485, 21.6463413, 1.485, 34.3902435, 0.0571154, -0.0558938, 1.485, -27.1951218, 1.485, 133.7804871, 1.485, -35.9146347, 0.0571154, 0.0035248, 1.485, 40.7926826, 1.485, 49.8780518, 1.485, 28.4756107, 0.0571154, -0.0884565, 1.485, -36.2195129, 1.485, 39.9390259, 1.485, 7.8048782, 0.0571154, -0.2991073, 1.485, -40.5487823, 1.485, 52.0121956, 1.485, -2.6829269, 0.0571154, -0.040116, 1.485, 32.7439041, 1.485, 127.5609818, 1.485, -57.8658562, , , , , , , , , , , , , , , , , , , , , , 
0.0576346, -0.0270237, 1.4985, -35.6707344, 1.4985, 68.7804871, 1.4985, 87.68293, 0.0576346, -0.0370947, 1.4985, 84.5731735, 1.4985, 41.4634171, 1.4985, -40.1219521, 0.0576346, -0.023331, 1.4985, 3.2317073, 1.4985, 20.4268303, 1.4985, 31.4634151, 0.0576346, -0.1136339, 1.4985, -35.4268303, 1.4985, 136.2195129, 1.4985, -19.8780499, 0.0576346, 0.0099031, 1.4985, 41.4024391, 1.4985, 51.341465, 1.4985, 27.6829281, 0.0576346, -0.0874495, 1.4985, -34.5121956, 1.4985, 40.5487823, 1.4985, 8.9024391, 0.0576346, -0.2641947, 1.4985, -37.9268303, 1.4985, 61.4024391, 1.4985, -2.0121951, 0.0576346, -0.0454871, 1.4985, 25.060976, 1.4985, 115.36586, 1.4985, -66.8292694, , , , , , , , , , , , , , , , , , , , , , 
0.0581538, -0.0364233, 1.512, -30.6097565, 1.512, 62.9878082, 1.512, 86.0975647, 0.0581538, -0.0320592, 1.512, 79.3292694, 1.512, 49.8780518, 1.512, -33.0487823, 0.0581538, -0.04448, 1.512, 2.9268293, 1.512, 29.4512196, 1.512, 34.1463432, 0.0581538, -0.1626459, 1.512, -34.4512215, 1.512, 105.2439041, 1.512, -17.6219521, 0.0581538, 0.0146029, 1.512, 37.6219521, 1.512, 55.1219521, 1.512, 24.5121956, 0.0581538, -0.0847639, 1.512, -34.2682953, 1.512, 47.1951218, 1.512, 10.1829271, 0.0581538, -0.2307927, 1.512, -35.9146347, 1.512, 61.7682953, 1.512, 1.5853659, 0.0581538, -0.0464942, 1.512, 32.7439041, 1.512, 94.3292694, 1.512, -59.9390259, , , , , , , , , , , , , , , , , , , , , , 
0.0586731, -0.0458228, 1.5255, -25.6707325, 1.5255, 60.6707344, 1.5255, 81.5243912, 0.0586731, -0.0256809, 1.5255, 72.0731735, 1.5255, 55, 1.5255, -23.1707325, 0.0586731, -0.0565652, 1.5255, 3.1097562, 1.5255, 34.0853653, 1.5255, 35.4878044, 0.0586731, -0.1695277, 1.5255, -33.7195129, 1.5255, 52.7439041, 1.5255, -15.4268293, 0.0586731, 0.0246738, 1.5255, 30.060976, 1.5255, 64.3902435, 1.5255, 23.4756107, 0.0586731, -0.0720073, 1.5255, -37.5609779, 1.5255, 60.4878044, 1.5255, 12.8048782, 0.0586731, -0.2009155, 1.5255, -32.3780479, 1.5255, 64.0853653, 1.5255, 7.2560978, 0.0586731, -0.0411231, 1.5255, 30.9756107, 1.5255, 40.9756088, 1.5255, -45.5487823, , , , , , , , , , , , , , , , , , , , , , 
0.0591923, -0.0562295, 1.539, -31.7073174, 1.539, 61.4634171, 1.539, 74.7560959, 0.0591923, -0.0109102, 1.539, 73.0487823, 1.539, 56.0365868, 1.539, -18.0487804, 0.0591923, -0.0464942, 1.539, 0.2439024, 1.539, 40.1219521, 1.539, 33.7195129, 0.0591923, -0.1733883, 1.539, -32.8048782, 1.539, 5.3048782, 1.539, -11.219512, 0.0591923, 0.0352483, 1.539, 26.4024391, 1.539, 68.7195129, 1.539, 22.6219521, 0.0591923, -0.051194, 1.539, -33.5365868, 1.539, 68.2926865, 1.539, 13.0487804, 0.0591923, -0.1723812, 1.539, -25.9756107, 1.539, 69.7560959, 1.539, 11.8292685, 0.0591923, -0.0357519, 1.539, 22.8658543, 1.539, -25.2439022, 1.539, -38.9024391, , , , , , , , , , , , , , , , , , , , , , 
0.0597115, -0.0629435, 1.5525, -36.7682953, 1.5525, 57.1951218, 1.5525, 68.0487823, 0.0597115, 0.0109102, 1.5525, 78.9024429, 1.5525, 57.3780518, 1.5525, -17.1951218, 0.0597115, -0.0626078, 1.5525, -0.3048781, 1.5525, 37.8658562, 1.5525, 27.4390259, 0.0597115, -0.1797665, 1.5525, -33.1707306, 1.5525, -40.1829262, 1.5525, -7.5, 0.0597115, 0.0431373, 1.5525, 23.3536587, 1.5525, 63.0487823, 1.5525, 20.8536587, 0.0597115, -0.0387732, 1.5525, -26.6463413, 1.5525, 61.0975609, 1.5525, 13.4756098, 0.0597115, -0.1451896, 1.5525, -20.1829281, 1.5525, 69.2073212, 1.5525, 13.2317076, 0.0597115, -0.030045, 1.5525, 11.7682934, 1.5525, -61.7682953, 1.5525, -39.0243912, , , , , , , , , , , , , , , , , , , , , , 
0.0602308, -0.0626078, 1.566, -37.6829262, 1.566, 48.6585388, 1.566, 63.6585388, 0.0602308, 0.0391089, 1.566, 79.3292694, 1.566, 52.3170738, 1.566, -19.6341476, 0.0602308, -0.103563, 1.566, 4.3292685, 1.566, 28.780489, 1.566, 25.3048782, 0.0602308, -0.1733883, 1.566, -19.6951218, 1.566, -31.7073174, 1.566, 1.3414634, 0.0602308, 0.0475013, 1.566, 21.0975609, 1.566, 57.3170738, 1.566, 20.9146347, 0.0602308, -0.0417945, 1.566, -26.3414631, 1.566, 43.1097565, 1.566, 15.7926836, 0.0602308, -0.1156481, 1.566, -23.1707325, 1.566, 61.5243912, 1.566, 9.6341467, 0.0602308, -0.023331, 1.566, -0.9756098, 1.566, -48.1707344, 1.566, -34.5731697, , , , , , , , , , , , , , , , , , , , , , 
0.06075, -0.0574044, 1.5795, -33.0487823, 1.5795, 38.2926826, 1.5795, 61.9512215, 0.06075, 0.0679789, 1.5795, 76.2804871, 1.5795, 35.2439041, 1.5795, -20.6707325, 0.06075, -0.1096056, 1.5795, 7.3780489, 1.5795, 13.9024391, 1.5795, 23.2317085, 0.06075, -0.1616388, 1.5795, 11.280488, 1.5795, -9.3902445, 1.5795, 9.6341467, 0.06075, 0.0532082, 1.5795, 16.5853653, 1.5795, 43.7804871, 1.5795, 20.4268303, 0.06075, -0.0525368, 1.5795, -23.5365868, 1.5795, 24.3902435, 1.5795, 16.5243912, 0.06075, -0.0793927, 1.5795, -27.9268303, 1.5795, 46.8292694, 1.5795, 3.5975611, 0.06075, -0.0219883, 1.5795, -20.4268303, 1.5795, 12.2560978, 1.5795, -17.9878044, , , , , , , , , , , , , , , , , , , , , , 
0.0612692, -0.054551, 1.593, -29.9390259, 1.593, 35.0609779, 1.593, 60.6097565, 0.0612692, 0.0874495, 1.593, 73.7195129, 1.593, 22.8658543, 1.593, -16.8292694, 0.0612692, -0.0829175, 1.593, 9.2073174, 1.593, 4.5121951, 1.593, 19.0853672, 0.0612692, -0.1641566, 1.593, 30.060976, 1.593, 10.1829271, 1.593, 15.4268293, 0.0612692, 0.0659648, 1.593, 14.7560978, 1.593, 27.9268303, 1.593, 17.560976, 0.0612692, -0.0621042, 1.593, -19.3292694, 1.593, 11.4634151, 1.593, 17.8048782, 0.0612692, -0.0337377, 1.593, -30.3658543, 1.593, 28.1707325, 1.593, -0.6097561, 0.0612692, -0.0231632, 1.593, -33.4756088, 1.593, 32.6829262, 1.593, -4.390244, , , , , , , , , , , , , , , , , , , , , , 
0.0617885, -0.0558938, 1.6065, -25.3048782, 1.6065, 33.5975609, 1.6065, 54.2682953, 0.0617885, 0.0978561, 1.6065, 62.0731735, 1.6065, 9.0243902, 1.6065, -15.1829271, 0.0617885, -0.0464942, 1.6065, 12.560976, 1.6065, -0.3048781, 1.6065, 16.280489, 0.0617885, -0.165835, 1.6065, 70.6707306, 1.6065, 39.0243912, 1.6065, 23.5365868, 0.0617885, 0.082414, 1.6065, 17.2560978, 1.6065, 12.6219511, 1.6065, 12.9268293, 0.0617885, -0.0592508, 1.6065, -17.1951218, 1.6065, 6.890244, 1.6065, 21.0365868, 0.0617885, 0.0260166, 1.6065, -31.280489, 1.6065, 12.7439032, 1.6065, -1.2195122, 0.0617885, -0.018967, 1.6065, -66.0975647, 1.6065, 65.7926865, 1.6065, 31.2195129, , , , , , , , , , , , , , , , , , , , , , 
0.0623077, -0.0649577, 1.62, -25.1219521, 1.62, 36.0975609, 1.62, 46.0365868, 0.0623077, 0.1089342, 1.62, 44.3292694, 1.62, -3.0487804, 1.62, -15.2439032, 0.0623077, 0.0135958, 1.62, 15.2439032, 1.62, -0.8536586, 1.62, 14.4512196, 0.0623077, -0.1210193, 1.62, 107.3780518, 1.62, 61.5853691, 1.62, 32.9878044, 0.0623077, 0.0991989, 1.62, 21.2195129, 1.62, 4.5121951, 1.62, 6.4024391, 0.0623077, -0.033402, 1.62, -16.0975609, 1.62, 5.9146342, 1.62, 23.2926826, 0.0623077, 0.0882887, 1.62, -30.1219521, 1.62, 1.6463414, 1.62, -0.1219512, 0.0623077, -0.0068818, 1.62, -93.7195129, 1.62, 118.8414688, 1.62, 57.5609779, , , , , , , , , , , , , , , , , , , , , , 
0.0628269, -0.0750286, 1.6335, -22.0731716, 1.6335, 30.060976, 1.6335, 39.2682953, 0.0628269, 0.1216907, 1.6335, 33.4756088, 1.6335, 10.5487804, 1.6335, -14.4512196, 0.0628269, 0.0558938, 1.6335, 14.9390249, 1.6335, -1.402439, 1.6335, 13.2926836, 0.0628269, -0.0555581, 1.6335, 132.1341553, 1.6335, 74.5731735, 1.6335, 50.6707344, 0.0628269, 0.1148089, 1.6335, 24.3292694, 1.6335, 2.6829269, 1.6335, -0.1219512, 0.0628269, 0.0073854, 1.6335, -14.3292685, 1.6335, 7.3170733, 1.6335, 23.7195129, 0.0628269, 0.1401541, 1.6335, -28.5975609, 1.6335, -4.1463413, 1.6335, 1.7682927, 0.0628269, 0.0070497, 1.6335, -115.6707306, 1.6335, 137.9878082, 1.6335, 59.4512215, , , , , , , , , , , , , , , , , , , , , , 
0.0633462, -0.0703288, 1.647, -14.4512196, 1.647, 15.4878054, 1.647, 33.2926826, 0.0633462, 0.1334401, 1.647, 28.1707325, 1.647, 23.2926826, 1.647, -12.9268293, 0.0633462, 0.0468299, 1.647, 14.4512196, 1.647, 0.1219512, 1.647, 11.6463413, 0.0633462, -0.0458228, 1.647, 150.6707306, 1.647, 79.2682953, 1.647, 68.6585388, 0.0633462, 0.121355, 1.647, 24.5121956, 1.647, 4.3292685, 1.647, -4.4512196, 0.0633462, 0.0407874, 1.647, -13.4146347, 1.647, 8.780488, 1.647, 23.8414631, 0.0633462, 0.1804379, 1.647, -25.6707325, 1.647, -4.5731707, 1.647, 4.390244, 0.0633462, 0.0203098, 1.647, -137.1341553, 1.647, 130.3048859, 1.647, 54.6951218, , , , , , , , , , , , , , , , , , , , , , 
0.0638654, -0.0528725, 1.6605, -8.4756098, 1.6605, 5.2439027, 1.6605, 26.9512196, 0.0638654, 0.1414969, 1.6605, 19.7560978, 1.6605, 47.2560997, 1.6605, -9.1463413, 0.0638654, 0.0357519, 1.6605, 14.5121956, 1.6605, 0.6707317, 1.6605, 9.9390249, 0.0638654, -0.1097734, 1.6605, 171.7682953, 1.6605, 106.2195129, 1.6605, 85.0609741, 0.0638654, 0.1085985, 1.6605, 23.2317085, 1.6605, 8.780488, 1.6605, -5.4878049, 0.0638654, 0.0454871, 1.6605, -11.341464, 1.6605, 10.1829271, 1.6605, 24.3902435, 0.0638654, 0.2168612, 1.6605, -22.0731716, 1.6605, -0.3658537, 1.6605, 6.5243902, 0.0638654, 0.0313878, 1.6605, -163.4146423, 1.6605, 145.2439117, 1.6605, 55.7317085, , , , , , , , , , , , , , , , , , , , , , 
0.0643846, -0.0391089, 1.674, -0.6707317, 1.674, 15.8536587, 1.674, 21.5243912, 0.0643846, 0.1522393, 1.674, 11.280488, 1.674, 62.7439041, 1.674, -6.4024391, 0.0643846, 0.0498512, 1.674, 14.2682934, 1.674, -3.1097562, 1.674, 8.2926826, 0.0643846, -0.2205539, 1.674, 190.9756165, 1.674, 132.3780518, 1.674, 105.18293, 0.0643846, 0.0871138, 1.674, 21.7682934, 1.674, 14.0243902, 1.674, -5.3658538, 0.0643846, 0.0297093, 1.674, -9.3902445, 1.674, 4.8780489, 1.674, 24.1463413, 0.0643846, 0.2536202, 1.674, -19.5121956, 1.674, 5.4878049, 1.674, 7.8048782, 0.0643846, 0.0399481, 1.674, -191.646347, 1.674, 160.9146423, 1.674, 54.7560997, , , , , , , , , , , , , , , , , , , , , , 
0.0649038, -0.0458228, 1.6875, 15.8536587, 1.6875, 40.0609779, 1.6875, 17.439024, 0.0649038, 0.1707027, 1.6875, 1.8292683, 1.6875, 71.7682953, 1.6875, -5.4268293, 0.0649038, 0.047837, 1.6875, 14.0243902, 1.6875, -7.4390244, 1.6875, 6.890244, 0.0649038, -0.2922255, 1.6875, 201.5853729, 1.6875, 140.2439117, 1.6875, 124.3902435, 0.0649038, 0.0710002, 1.6875, 21.4634151, 1.6875, 17.3780499, 1.6875, -4.6341462, 0.0649038, 0.0041962, 1.6875, -7.3780489, 1.6875, -1.0365853, 1.6875, 23.1707325, 0.0649038, 0.2865187, 1.6875, -19.8780499, 1.6875, 10.1219511, 1.6875, 8.719512, 0.0649038, 0.0414588, 1.6875, -217.6219635, 1.6875, 158.9024353, 1.6875, 51.0365868, , , , , , , , , , , , , , , , , , , , , , 
0.0654231, -0.0656291, 1.701, 31.4024391, 1.701, 56.2195129, 1.701, 13.4146347, 0.0654231, 0.1901732, 1.701, -9.7560978, 1.701, 80.3658524, 1.701, -6.4024391, 0.0654231, 0.0092317, 1.701, 14.0853662, 1.701, -10.1219511, 1.701, 6.0365853, 0.0654231, -0.2841688, 1.701, 206.5243988, 1.701, 130.4268341, 1.701, 140.1219482, 0.0654231, 0.0548867, 1.701, 20.5487804, 1.701, 19.6341476, 1.701, -3.3536587, 0.0654231, -0.0196384, 1.701, -6.0975609, 1.701, -3.1097562, 1.701, 22.6219521, 0.0654231, 0.3147173, 1.701, -21.2195129, 1.701, 12.1341467, 1.701, 9.2682924, 0.0654231, 0.0347448, 1.701, -236.1585388, 1.701, 166.5243988, 1.701, 50.1829262, , , , , , , , , , , , , , , , , , , , , , 
0.0659423, -0.0773785, 1.7145, 38.9024391, 1.7145, 38.4146347, 1.7145, 9.9390249, 0.0659423, 0.1972229, 1.7145, -23.5975609, 1.7145, 87.7439041, 1.7145, -9.6341467, 0.0659423, -0.024506, 1.7145, 14.8780489, 1.7145, -9.4512196, 1.7145, 5.5487804, 0.0659423, -0.2254215, 1.7145, 202.5609741, 1.7145, 115.2439041, 1.7145, 151.5853729, 0.0659423, 0.0374304, 1.7145, 19.0243912, 1.7145, 20.3658543, 1.7145, -2.0731707, 0.0659423, -0.0219883, 1.7145, -5.5487804, 1.7145, 0.1219512, 1.7145, 23.2926826, 0.0659423, 0.3388876, 1.7145, -23.2926826, 1.7145, 15.4878054, 1.7145, 10.7317076, 0.0659423, 0.0293736, 1.7145, -240.4268341, 1.7145, 171.2195129, 1.7145, 45.3048782, , , , , , , , , , , , , , , , , , , , , , 
0.0664615, -0.0827497, 1.728, 43.3536606, 1.728, 40.4268303, 1.728, 2.3170731, 0.0664615, 0.1864805, 1.728, -37.5609779, 1.728, 86.4024429, 1.728, -14.6341467, 0.0664615, -0.0323949, 1.728, 15.2439032, 1.728, -8.0487804, 1.728, 5.4268293, 0.0664615, -0.1451896, 1.728, 191.7073212, 1.728, 103.2317123, 1.728, 158.0487823, 0.0664615, 0.0193027, 1.728, 18.3536587, 1.728, 20.7317085, 1.728, -1.5243902, 0.0664615, 0.0072175, 1.728, -5.9146342, 1.728, 3.0487804, 1.728, 24.7560978, 0.0664615, 0.364065, 1.728, -23.9024391, 1.728, 17.6219521, 1.728, 12.8048782, 0.0664615, 0.0320592, 1.728, -231.5853729, 1.728, 142.5, 1.728, 29.8170738, , , , , , , , , , , , , , , , , , , , , , 
0.0669808, -0.0921492, 1.7415, 57.1951218, 1.7415, 32.2560997, 1.7415, -4.6341462, 0.0669808, 0.1649958, 1.7415, -46.6463432, 1.7415, 74.9390259, 1.7415, -20.6097565, 0.0669808, -0.0404517, 1.7415, 16.6463413, 1.7415, -7.5609756, 1.7415, 5.1829271, 0.0669808, -0.0800641, 1.7415, 176.4634247, 1.7415, 94.2682953, 1.7415, 156.7682953, 0.0669808, -0.0001678, 1.7415, 16.6463413, 1.7415, 22.9878063, 1.7415, 0, 0.0669808, 0.0542153, 1.7415, -5.7926831, 1.7415, 3.7804878, 1.7415, 25.1829281, 0.0669808, 0.3882353, 1.7415, -24.2073174, 1.7415, 19.7560978, 1.7415, 15.3658543, 0.0669808, 0.0345769, 1.7415, -223.2926941, 1.7415, 127.9878082, 1.7415, 20.4268303, , , , , , , , , , , , , , , , , , , , , , 
0.0675, -0.1018845, 1.755, 61.4024391, 1.755, 21.8292694, 1.755, -6.0975609, 0.0675, 0.1426719, 1.755, -49.5121956, 1.755, 50.3658562, 1.755, -28.4756107, 0.0675, -0.0770428, 1.755, 17.8658543, 1.755, -11.341464, 1.755, 3.8414636, 0.0675, -0.0283665, 1.755, 164.5121918, 1.755, 76.8902435, 1.755, 144.2073212, 0.0675, -0.0169528, 1.755, 15.5487804, 1.755, 26.8902454, 1.755, 1.5243902, 0.0675, 0.0609293, 1.755, -5, 1.755, -0.8536586, 1.755, 24.9390259, 0.0675, 0.4056916, 1.755, -24.9390259, 1.755, 22.1951218, 1.755, 17.6219521, 0.0675, 0.0293736, 1.755, -212.012207, 1.755, 100.5487823, 1.755, 11.341464, , , , , , , , , , , , , , , , , , , , , , 
0.0680192, -0.1111162, 1.7685, 54.4512215, 1.7685, 15.8536587, 1.7685, -6.7682929, 0.0680192, 0.1206836, 1.7685, -47.0731735, 1.7685, 13.7195129, 1.7685, -36.1585388, 0.0680192, -0.142504, 1.7685, 17.1341476, 1.7685, -12.7439032, 1.7685, 2.3780489, 0.0680192, 0.054551, 1.7685, 163.8414612, 1.7685, 71.2804871, 1.7685, 137.1341553, 0.0680192, -0.0297093, 1.7685, 16.1585369, 1.7685, 29.5121956, 1.7685, 3.9024391, 0.0680192, 0.0307164, 1.7685, -2.9268293, 1.7685, -3.9024391, 1.7685, 24.1463413, 0.0680192, 0.4160983, 1.7685, -26.3414631, 1.7685, 22.8048782, 1.7685, 19.0853672, 0.0680192, 0.0260166, 1.7685, -218.0487823, 1.7685, 93.9024429, 1.7685, 22.0731716, , , , , , , , , , , , , , , , , , , , , , 
0.0685385, -0.1111162, 1.782, 36.2804871, 1.782, 40.8536606, 1.782, -6.0975609, 0.0685385, 0.0998703, 1.782, -46.2195129, 1.782, -26.0365868, 1.782, -37.7439041, 0.0685385, -0.1587854, 1.782, 16.3414631, 1.782, -11.219512, 1.782, 1.0365853, 0.0685385, 0.1639887, 1.782, 166.2804871, 1.782, 72.9268341, 1.782, 122.0121994, 0.0685385, -0.0381018, 1.782, 18.1097565, 1.782, 28.5365868, 1.782, 5.1219511, 0.0685385, 0.0176242, 1.782, -1.6463414, 1.782, -5.3658538, 1.782, 24.1463413, 0.0685385, 0.420798, 1.782, -29.0853672, 1.782, 20.6097565, 1.782, 19.3292694, 0.0685385, 0.0292058, 1.782, -208.4756165, 1.782, 118.9634171, 1.782, 32.6829262, , , , , , , , , , , , , , , , , , , , , , 
0.0690577, -0.0931563, 1.7955, 18.5365849, 1.7955, 59.8170738, 1.7955, -3.9024391, 0.0690577, 0.0810712, 1.7955, -49.0853653, 1.7955, -43.4146347, 1.7955, -28.841465, 0.0690577, -0.0867781, 1.7955, 16.8902435, 1.7955, -7.9878049, 1.7955, 1.4634147, 0.0690577, 0.230457, 1.7955, 159.146347, 1.7955, 84.5731735, 1.7955, 101.8902435, 0.0690577, -0.0572366, 1.7955, 20.6707325, 1.7955, 30.2439022, 1.7955, 4.8780489, 0.0690577, 0.0317235, 1.7955, -2.0731707, 1.7955, -3.1097562, 1.7955, 24.6951218, 0.0690577, 0.4214694, 1.7955, -33.2317085, 1.7955, 19.6341476, 1.7955, 19.6341476, 0.0690577, 0.0354162, 1.7955, -172.4390259, 1.7955, 124.7561035, 1.7955, 33.2317085, , , , , , , , , , , , , , , , , , , , , , 
0.0695769, -0.0624399, 1.809, 8.3536587, 1.809, 74.9390259, 1.809, 0.9756098, 0.0695769, 0.0595865, 1.809, -52.5609779, 1.809, -20.6707325, 1.809, -7.5, 0.0695769, 0.0109102, 1.809, 18.2926826, 1.809, -0.6707317, 1.809, 2.4390244, 0.0695769, 0.2208896, 1.809, 147.1951294, 1.809, 100.4878082, 1.809, 84.5121994, 0.0695769, -0.0891279, 1.809, 22.3170738, 1.809, 31.6463413, 1.809, 3.9024391, 0.0695769, 0.0481727, 1.809, -3.3536587, 1.809, 3.5975611, 1.809, 26.7073174, 0.0695769, 0.4145876, 1.809, -35.6097565, 1.809, 19.6951218, 1.809, 20.8536587, 0.0695769, 0.0481727, 1.809, -149.0853729, 1.809, 120.18293, 1.809, 29.5731716, , , , , , , , , , , , , , , , , , , , , , 
0.0700962, -0.0438087, 1.8225, 15.5487804, 1.8225, 89.5121994, 1.8225, 2.1341465, 0.0700962, 0.0290379, 1.8225, -50.9146347, 1.8225, 3.0487804, 1.8225, 5.3658538, 0.0700962, 0.0616007, 1.8225, 18.5975609, 1.8225, 7.0121951, 1.8225, 2.6829269, 0.0700962, 0.1878233, 1.8225, 133.4146423, 1.8225, 104.4512253, 1.8225, 73.3536606, 0.0700962, -0.1243763, 1.8225, 22.6829281, 1.8225, 31.8292694, 1.8225, 2.5, 0.0700962, 0.0491798, 1.8225, -3.4756098, 1.8225, 12.1341467, 1.8225, 28.2926826, 0.0700962, 0.4013275, 1.8225, -33.9634171, 1.8225, 19.2682934, 1.8225, 22.3780499, 0.0700962, 0.0585794, 1.8225, -132.6829224, 1.8225, 112.86586, 1.8225, 21.9512196, , , , , , , , , , , , , , , , , , , , , , 
0.0706154, -0.0448157, 1.836, 31.0975609, 1.836, 103.0487823, 1.836, -6.1585369, 0.0706154, -0.0073854, 1.836, -46.4634171, 1.836, 57.3170738, 1.836, 27.0121956, 0.0706154, 0.0347448, 1.836, 19.3902435, 1.836, 12.4390249, 1.836, 2.8658538, 0.0706154, 0.1916838, 1.836, 104.8170776, 1.836, 92.1341476, 1.836, 53.841465, 0.0706154, -0.1478752, 1.836, 20.1829281, 1.836, 34.5121956, 1.836, 1.7073171, 0.0706154, 0.0297093, 1.836, -3.7195122, 1.836, 17.8658543, 1.836, 29.6341476, 0.0706154, 0.3925994, 1.836, -28.9634151, 1.836, 22.8658543, 1.836, 23.4756107, 0.0706154, 0.054551, 1.836, -101.646347, 1.836, 98.1707306, 1.836, 9.6341467, , , , , , , , , , , , , , , , , , , , , , 
0.0711346, -0.051194, 1.8495, 37.1341476, 1.8495, 111.5243912, 1.8495, -17.3780499, 0.0711346, -0.0431373, 1.8495, -38.5975609, 1.8495, 104.0243912, 1.8495, 36.0975609, 0.0711346, -0.0498512, 1.8495, 20.7317085, 1.8495, 10.6707315, 1.8495, 3.8414636, 0.0711346, 0.2039368, 1.8495, 66.5243912, 1.8495, 79.5731735, 1.8495, 22.2560978, 0.0711346, -0.1451896, 1.8495, 16.4634151, 1.8495, 37.3780479, 1.8495, 2.5609756, 0.0711346, 0.0025177, 1.8495, -4.6951222, 1.8495, 17.0121956, 1.8495, 31.280489, 0.0711346, 0.3845426, 1.8495, -25.3048782, 1.8495, 30.3048782, 1.8495, 23.5975609, 0.0711346, 0.0441444, 1.8495, -58.3536606, 1.8495, 95.3048782, 1.8495, -0.5487805, , , , , , , , , , , , , , , , , , , , , , 
0.0716538, -0.0528725, 1.863, 32.0731697, 1.863, 109.0853653, 1.863, -20.9146347, 0.0716538, -0.0740215, 1.863, -36.7682953, 1.863, 140.6707306, 1.863, 33.1707306, 0.0716538, -0.13579, 1.863, 22.6829281, 1.863, 3.5365853, 1.863, 3.5975611, 0.0716538, 0.1829557, 1.863, 17.5, 1.863, 60.9146347, 1.863, -18.9024391, 0.0716538, -0.1163195, 1.863, 14.5731707, 1.863, 40.0609779, 1.863, 3.2317073, 0.0716538, -0.0171206, 1.863, -4.6341462, 1.863, 10.1829271, 1.863, 32.6829262, 0.0716538, 0.3689326, 1.863, -23.1097565, 1.863, 37.5, 1.863, 22.6219521, 0.0716538, 0.033402, 1.863, 7.6829271, 1.863, 86.9512253, 1.863, -8.2926826, , , , , , , , , , , , , , , , , , , , , , 
0.0721731, -0.054551, 1.8765, 27.2560978, 1.8765, 104.8780518, 1.8765, -17.0731716, 0.0721731, -0.0991989, 1.8765, -52.1341476, 1.8765, 157.7439117, 1.8765, 22.9878063, 0.0721731, -0.1576104, 1.8765, 26.6463413, 1.8765, -3.6585367, 1.8765, 3.4146342, 0.0721731, 0.1445182, 1.8765, -40.1219521, 1.8765, 28.5365868, 1.8765, -50.6097565, 0.0721731, -0.0889601, 1.8765, 14.2682934, 1.8765, 40.2439041, 1.8765, 2.6829269, 0.0721731, -0.0258488, 1.8765, -4.2682929, 1.8765, 1.4634147, 1.8765, 34.8780479, 0.0721731, 0.3486229, 1.8765, -21.8902435, 1.8765, 37.6219521, 1.8765, 22.9878063, 0.0721731, 0.01561, 1.8765, 80.5487823, 1.8765, 50.7926826, 1.8765, -17.8048782, , , , , , , , , , , , , , , , , , , , , , 
0.0726923, -0.0624399, 1.89, 31.8902454, 1.89, 94.0853653, 1.89, -18.3536587, 0.0726923, -0.1203479, 1.89, -65.5487823, 1.89, 132.4390259, 1.89, 5.9756098, 0.0726923, -0.1025559, 1.89, 30.4878063, 1.89, -7.0731707, 1.89, 3.1097562, 0.0726923, 0.1233692, 1.89, -50.2439041, 1.89, 10, 1.89, -50.8536606, 0.0726923, -0.0693217, 1.89, 16.5243912, 1.89, 36.0365868, 1.89, -2.0121951, 0.0726923, -0.0260166, 1.89, -3.7804878, 1.89, -4.2073174, 1.89, 38.2317085, 0.0726923, 0.3266346, 1.89, -20.7317085, 1.89, 26.0975609, 1.89, 25, 0.0726923, -0.0048676, 1.89, 87.5, 1.89, -15.1219511, 1.89, -27.3780499, , , , , , , , , , , , , , , , , , , , , , 
0.0732115, -0.0757, 1.9035, 36.1585388, 1.9035, 84.0243912, 1.9035, -24.7560978, 0.0732115, -0.13579, 1.9035, -46.2195129, 1.9035, 57.6219521, 1.9035, -9.8170738, 0.0732115, -0.0236667, 1.9035, 33.4146347, 1.9035, -5.7317076, 1.9035, 2.195122, 0.0732115, 0.1265583, 1.9035, -4.6951222, 1.9035, -34.1463432, 1.9035, 7.5609756, 0.0732115, -0.0451514, 1.9035, 19.3902435, 1.9035, 26.6463413, 1.9035, -10.1219511, 0.0732115, -0.0139315, 1.9035, -3.7195122, 1.9035, -5.3658538, 1.9035, 41.0975609, 0.0732115, 0.303975, 1.9035, -19.6951218, 1.9035, 6.4024391, 1.9035, 27.3170738, 0.0732115, -0.0125887, 1.9035, 58.5365868, 1.9035, -84.0243912, 1.9035, -30.9756107, , , , , , , , , , , , , , , , , , , , , , 
0.0737308, -0.0847639, 1.917, 42.1951218, 1.917, 50, 1.917, -46.2195129, 0.0737308, -0.1468681, 1.917, -12.6829271, 1.917, -31.5853672, 1.917, -0.8536586, 0.0737308, 0.0273594, 1.917, 34.6341476, 1.917, -4.5121951, 1.917, 1.9512196, 0.0737308, 0.1287404, 1.917, 22.9268303, 1.917, -91.0975647, 1.917, 61.7682953, 0.0737308, -0.018967, 1.917, 17.8048782, 1.917, 15, 1.917, -19.8170738, 0.0737308, 0.0092317, 1.917, -3.6585367, 1.917, -7.8048782, 1.917, 43.2926826, 0.0737308, 0.2858473, 1.917, -18.6585369, 1.917, -4.1463413, 1.917, 28.2317085, 0.0737308, -0.005539, 1.917, -53.3536606, 1.917, -169.0853729, 1.917, -20.6707325, , , , , , , , , , , , , , , , , , , , , , 
0.07425, -0.0844282, 1.9305, 39.6341476, 1.9305, -5.1219511, 1.9305, -65.9756088, 0.07425, -0.1555962, 1.9305, -12.1951218, 1.9305, -64.9390259, 1.9305, 33.5975609, 0.07425, 0.0466621, 1.9305, 36.341465, 1.9305, -8.1707315, 1.9305, 2.9268293, 0.07425, 0.1498894, 1.9305, 10.9756098, 1.9305, -94.146347, 1.9305, 60.4268303, 0.07425, 0.0025177, 1.9305, 10.8536587, 1.9305, 7.0121951, 1.9305, -28.4146347, 0.07425, 0.0075532, 1.9305, -4.8780489, 1.9305, -15.7926836, 1.9305, 44.3902435, 0.07425, 0.2704051, 1.9305, -14.6951227, 1.9305, -22.3780499, 1.9305, 27.9268303, 0.07425, 0.0016785, 1.9305, -86.8292694, 1.9305, -68.7195129, 1.9305, -9.3902445, , , , , , , , , , , , , , , , , , , , , , 
0.0747692, -0.0854353, 1.944, 31.9512196, 1.944, -39.2073174, 1.944, -62.9268303, 0.0747692, -0.1596246, 1.944, -61.7682953, 1.944, -15.060976, 1.944, 52.9268303, 0.0747692, 0.0696574, 1.944, 38.6585388, 1.944, -20.6707325, 1.944, 5, 0.0747692, 0.199237, 1.944, -11.6463413, 1.944, -19.3292694, 1.944, 19.4512196, 0.0747692, 0.0119173, 1.944, 2.7439024, 1.944, 3.2926829, 1.944, -34.5121956, 0.0747692, -0.01561, 1.944, -5.9756098, 1.944, -21.9512196, 1.944, 44.5121956, 0.0747692, 0.2529488, 1.944, -10.4878054, 1.944, -32.6219521, 1.944, 24.5731716, 0.0747692, 0.0011749, 1.944, -53.2317085, 1.944, 5, 1.944, -21.280489, , , , , , , , , , , , , , , , , , , , , , 
0.0752885, -0.0928206, 1.9575, 26.7073174, 1.9575, -18.1097565, 1.9575, -43.1707344, 0.0752885, -0.1579461, 1.9575, -97.0121994, 1.9575, 17.2560978, 1.9575, 39.6951218, 0.0752885, 0.093492, 1.9575, 42.0121956, 1.9575, -36.7682953, 1.9575, 7.0731707, 0.0752885, 0.2019226, 1.9575, -23.4146347, 1.9575, 13.7195129, 1.9575, -3.2317073, 0.0752885, 0.0028534, 1.9575, -2.5609756, 1.9575, 2.2560976, 1.9575, -37.1341476, 0.0752885, -0.0246738, 1.9575, -8.3536587, 1.9575, -35.9146347, 1.9575, 45.1219521, 0.0752885, 0.2333104, 1.9575, -7.8048782, 1.9575, -32.6219521, 1.9575, 22.2560978, 0.0752885, -0.0062104, 1.9575, 26.3414631, 1.9575, -13.1097565, 1.9575, -34.3292694, , , , , , , , , , , , , , , , , , , , , , 
0.0758077, -0.0955062, 1.971, 13.841464, 1.971, 4.8170733, 1.971, -31.0365868, 0.0758077, -0.1493858, 1.971, -66.4634171, 1.971, -10.8536587, 1.971, 19.8780499, 0.0758077, 0.0973526, 1.971, 44.5731735, 1.971, -46.6463432, 1.971, 8.9634151, 0.0758077, 0.1089342, 1.971, -24.7560978, 1.971, 38.1097565, 1.971, -22.9268303, 0.0758077, -0.0229953, 1.971, -7.8048782, 1.971, 3.4756098, 1.971, -37.7439041, 0.0758077, -0.0159457, 1.971, -10.4268293, 1.971, -44.5731735, 1.971, 45.7317085, 0.0758077, 0.2106508, 1.971, -6.4024391, 1.971, -25.060976, 1.971, 22.7439022, 0.0758077, -0.0198062, 1.971, 27.3780499, 1.971, 6.5853658, 1.971, -36.2195129, , , , , , , , , , , , , , , , , , , , , , 
0.0763269, -0.0894636, 1.9845, 1.402439, 1.9845, 23.0487804, 1.9845, -26.7682934, 0.0763269, -0.1310903, 1.9845, -30.4878063, 1.9845, -21.6463413, 1.9845, 11.4634151, 0.0763269, 0.076875, 1.9845, 44.7560997, 1.9845, -47.9268303, 1.9845, 10.7926836, 0.0763269, -0.0011749, 1.9845, -9.9390249, 1.9845, 24.8170738, 1.9845, -4.7560978, 0.0763269, -0.0663005, 1.9845, -15.9146347, 1.9845, 10.7317076, 1.9845, -37.5, 0.0763269, -0.0146029, 1.9845, -12.1951218, 1.9845, -45.4268303, 1.9845, 45.6707344, 0.0763269, 0.1871519, 1.9845, -1.5243902, 1.9845, -13.9024391, 1.9845, 27.0731716, 0.0763269, -0.0290379, 1.9845, -13.780488, 1.9845, 66.8902435, 1.9845, -26.4634151, , , , , , , , , , , , , , , , , , , , , , 
0.0768462, -0.0840925, 1.998, 13.6585369, 1.998, 46.341465, 1.998, -20.6097565, 0.0768462, -0.1018845, 1.998, 31.5853672, 1.998, -8.2317076, 1.998, 0, 0.0768462, 0.0424659, 1.998, 43.1707344, 1.998, -42.6219521, 1.998, 12.9268293, 0.0768462, -0.0357519, 1.998, -5.4878049, 1.998, 8.719512, 1.998, 9.6341467, 0.0768462, -0.1050736, 1.998, -29.5121956, 1.998, 22.9268303, 1.998, -35.6097565, 0.0768462, -0.0287022, 1.998, -13.9634151, 1.998, -39.2073174, 1.998, 45.1219521, 0.0768462, 0.1660029, 1.998, 1.8292683, 1.998, -2.6829269, 1.998, 33.4756088, 0.0768462, -0.023331, 1.998, -8.5365858, 1.998, 36.0365868, 1.998, -25.6097565, , , , , , , , , , , , , , , , , , , , , , 
0.0773654, -0.0882887, 2.0115, 25.3658543, 2.0115, 52.9268303, 2.0115, -13.5365858, 0.0773654, -0.0626078, 2.0115, 34.0243912, 2.0115, 39.7560997, 2.0115, 4.6341462, 0.0773654, 0.0119173, 2.0115, 42.1951218, 2.0115, -34.9390259, 2.0115, 15.3658543, 0.0773654, 0.0146029, 2.0115, -6.3414636, 2.0115, 19.939024, 2.0115, 0.1219512, 0.0773654, -0.114641, 2.0115, -39.2682953, 2.0115, 32.5, 2.0115, -33.3536606, 0.0773654, -0.0417945, 2.0115, -17.0121956, 2.0115, -30.4268303, 2.0115, 44.6341476, 0.0773654, 0.1468681, 2.0115, 3.1707318, 2.0115, 8.4756098, 2.0115, 37.9878044, 0.0773654, -0.0149386, 2.0115, 10.3048782, 2.0115, -11.280488, 2.0115, -25.4878063, , , , , , , , , , , , , , , , , , , , , , 
0.0778846, -0.0951705, 2.025, 22.0731716, 2.025, 59.1463432, 2.025, -16.0975609, 0.0778846, -0.018967, 2.025, -4.0243902, 2.025, 77.8048782, 2.025, 17.6219521, 0.0778846, -0.0196384, 2.025, 38.6585388, 2.025, -29.0243912, 2.025, 17.8048782, 0.0778846, 0.0683146, 2.025, -18.0487804, 2.025, 0.9756098, 2.025, -7.0731707, 0.0778846, -0.1077592, 2.025, -32.3170738, 2.025, 40.7926826, 2.025, -33.4756088, 0.0778846, -0.0471656, 2.025, -18.7195129, 2.025, -24.8780499, 2.025, 42.8658562, 0.0778846, 0.1284047, 2.025, 5.7926831, 2.025, 16.1585369, 2.025, 38.1097565, 0.0778846, -0.0092317, 2.025, 6.3414636, 2.025, -7.5609756, 2.025, -28.2926826, , , , , , , , , , , , , , , , , , , , , , 
0.0784038, -0.0951705, 2.0385, 8.1707315, 2.0385, 74.4512177, 2.0385, -22.5, 0.0784038, 0.0199741, 2.0385, -42.1951218, 2.0385, 75.6097565, 2.0385, 27.8658543, 0.0784038, -0.0787213, 2.0385, 36.7682953, 2.0385, -25.6707325, 2.0385, 20.1219521, 0.0784038, 0.0683146, 2.0385, -18.4756107, 2.0385, 4.3292685, 2.0385, -1.0365853, 0.0784038, -0.1129625, 2.0385, -28.4146347, 2.0385, 43.1707344, 2.0385, -32.1341476, 0.0784038, -0.0565652, 2.0385, -20.7317085, 2.0385, -22.3170738, 2.0385, 40.9756088, 0.0784038, 0.1119554, 2.0385, 10.9756098, 2.0385, 19.2682934, 2.0385, 33.6585388, 0.0784038, -0.0035248, 2.0385, 7.2560978, 2.0385, -5.0609756, 2.0385, -30.4878063, , , , , , , , , , , , , , , , , , , , , , 
0.0789231, -0.0897993, 2.052, -2.0731707, 2.052, 81.8292694, 2.052, -24.0853672, 0.0789231, 0.0500191, 2.052, -53.3536606, 2.052, 56.0365868, 2.052, 31.1585369, 0.0789231, -0.1232013, 2.052, 36.4024391, 2.052, -25.5487804, 2.052, 22.3170738, 0.0789231, 0.0172885, 2.052, -15.5487804, 2.052, 16.2195129, 2.052, -2.1341465, 0.0789231, -0.1225299, 2.052, -29.0243912, 2.052, 36.7682953, 2.052, -23.9024391, 0.0789231, -0.0676432, 2.052, -23.5365868, 2.052, -18.9634151, 2.052, 40.0609779, 0.0789231, 0.0995346, 2.052, 15.3048782, 2.052, 22.8048782, 2.052, 28.4756107, 0.0789231, 0.0041962, 2.052, 11.8292685, 2.052, -4.8170733, 2.052, -28.9024391, , , , , , , , , , , , , , , , , , , , , , 
0.0794423, -0.0874495, 2.0655, -1.4634147, 2.0655, 80.2439041, 2.0655, -23.5365868, 0.0794423, 0.0773785, 2.0655, -46.8292694, 2.0655, 36.0365868, 2.0655, 31.4024391, 0.0794423, -0.0850996, 2.0655, 37.0121956, 2.0655, -23.9024391, 2.0655, 24.8170738, 0.0794423, -0.079057, 2.0655, -20.1829281, 2.0655, 6.0975609, 2.0655, -9.9390249, 0.0794423, -0.1243763, 2.0655, -28.4756107, 2.0655, 27.4390259, 2.0655, -15.8536587, 0.0794423, -0.0706645, 2.0655, -26.8292694, 2.0655, -16.5853653, 2.0655, 40, 0.0794423, 0.0903029, 2.0655, 19.3292694, 2.0655, 21.0365868, 2.0655, 23.9634151, 0.0794423, 0.0104067, 2.0655, 21.4024391, 2.0655, 4.5121951, 2.0655, -24.6951218, , , , , , , , , , , , , , , , , , , , , , 
0.0799615, -0.0914778, 2.079, 5.5487804, 2.079, 69.9390259, 2.079, -21.3414631, 0.0799615, 0.0991989, 2.079, -26.8902454, 2.079, 32.0121956, 2.079, 31.5243912, 0.0799615, 0.0137636, 2.079, 37.7439041, 2.079, -20.6097565, 2.079, 28.2926826, 0.0799615, -0.2143435, 2.079, -23.2317085, 2.079, -10.9756098, 2.079, -9.8780489, 0.0799615, -0.1250477, 2.079, -25.8536587, 2.079, 23.5975609, 2.079, -14.4512196, 0.0799615, -0.0592508, 2.079, -30.7926846, 2.079, -19.3292694, 2.079, 39.9390259, 0.0799615, 0.0817426, 2.079, 25.7926826, 2.079, 10.6707315, 2.079, 21.4634151, 0.0799615, 0.0132601, 2.079, 20.1829281, 2.079, -0.9756098, 2.079, -23.1097565, , , , , , , , , , , , , , , , , , , , , , 
0.0804808, -0.0965133, 2.0925, 14.3292685, 2.0925, 56.9512215, 2.0925, -19.2682934, 0.0804808, 0.114641, 2.0925, -4.8170733, 2.0925, 44.1463432, 2.0925, 26.8902454, 0.0804808, 0.0673075, 2.0925, 37.3780479, 2.0925, -18.3536587, 2.0925, 32.0121956, 0.0804808, -0.2881971, 2.0925, -19.5121956, 2.0925, -11.0975609, 2.0925, -7.6219516, 0.0804808, -0.1374685, 2.0925, -24.5731716, 2.0925, 19.4512196, 2.0925, -17.7439022, 0.0804808, -0.0392767, 2.0925, -34.9390259, 2.0925, -17.2560978, 2.0925, 39.1463432, 0.0804808, 0.0706645, 2.0925, 29.6341476, 2.0925, -0.1829268, 2.0925, 18.4756107, 0.0804808, 0.0132601, 2.0925, 14.7560978, 2.0925, -9.3902445, 2.0925, -23.2317085, , , , , , , , , , , , , , , , , , , , , , 
0.081, -0.0971847, 2.106, 19.2682934, 2.106, 47.8048782, 2.106, -19.7560978, 0.081, 0.1220264, 2.106, 4.8170733, 2.106, 49.4512215, 2.106, 20.7317085, 0.081, 0.0454871, 2.106, 35.3658562, 2.106, -14.3292685, 2.106, 35.0609779, 0.081, -0.2190433, 2.106, -15.1829271, 2.106, 6.1585369, 2.106, -8.5365858, 0.081, -0.1599603, 2.106, -28.2926826, 2.106, 15.5487804, 2.106, -22.0121956, 0.081, -0.0276951, 2.106, -36.5243912, 2.106, -12.8048782, 2.106, 38.7804871, 0.081, 0.0548867, 2.106, 27.3170738, 2.106, -2.195122, 2.106, 14.8170738, 0.081, 0.0105745, 2.106, 17.560976, 2.106, 5.4268293, 2.106, -20.9756107, , , , , , , , , , , , , , , , , , , , , , 
0.0815192, -0.0958419, 2.1195, 17.7439022, 2.1195, 39.5121956, 2.1195, -22.2560978, 0.0815192, 0.1221942, 2.1195, -6.3414636, 2.1195, 37.8658562, 2.1195, 15, 0.0815192, 0.0142672, 2.1195, 34.4512215, 2.1195, -11.0365858, 2.1195, 36.341465, 0.0815192, -0.0904707, 2.1195, -10.7317076, 2.1195, 23.1707325, 2.1195, -8.6585369, 0.0815192, -0.1649958, 2.1195, -37.3170738, 2.1195, 16.9512196, 2.1195, -24.5731716, 0.0815192, -0.0276951, 2.1195, -38.9634171, 2.1195, -3.7804878, 2.1195, 37.9268303, 0.0815192, 0.0387732, 2.1195, 26.7682934, 2.1195, 4.5731707, 2.1195, 12.3170738, 0.0815192, 0.0043641, 2.1195, 15.5487804, 2.1195, 22.0121956, 2.1195, -21.9512196, , , , , , , , , , , , , , , , , , , , , , 
0.0820385, -0.0941634, 2.133, 13.3536587, 2.133, 33.1707306, 2.133, -21.9512196, 0.0820385, 0.1139696, 2.133, -23.4146347, 2.133, 24.3292694, 2.133, 11.6463413, 0.0820385, -0.008896, 2.133, 35.9756088, 2.133, -5.5487804, 2.133, 39.2073174, 0.0820385, -0.0213169, 2.133, -9.3292685, 2.133, 26.4024391, 2.133, -8.1707315, 0.0820385, -0.1307546, 2.133, -45.4268303, 2.133, 26.1585369, 2.133, -23.5365868, 0.0820385, -0.026688, 2.133, -42.8048782, 2.133, -0.9756098, 2.133, 39.3292694, 0.0820385, 0.027863, 2.133, 30.3658543, 2.133, 14.6341467, 2.133, 11.0365858, 0.0820385, -0.0062104, 2.133, 11.1585369, 2.133, 27.8048782, 2.133, -21.9512196, , , , , , , , , , , , , , , , , , , , , , 
0.0825577, -0.0923171, 2.1465, 13.4146347, 2.1465, 30.7926846, 2.1465, -19.5731716, 0.0825577, 0.1037308, 2.1465, -28.5365868, 2.1465, 18.2926826, 2.1465, 10.2439022, 0.0825577, -0.0652934, 2.1465, 41.2195129, 2.1465, -3.6585367, 2.1465, 43.3536606, 0.0825577, -0.0011749, 2.1465, -8.780488, 2.1465, 19.6341476, 2.1465, -6.5853658, 0.0825577, -0.0787213, 2.1465, -50.2439041, 2.1465, 34.8170738, 2.1465, -19.5121956, 0.0825577, -0.0146029, 2.1465, -47.8048782, 2.1465, -6.5243902, 2.1465, 44.5121956, 0.0825577, 0.018967, 2.1465, 33.4756088, 2.1465, 20, 2.1465, 10.4268293, 0.0825577, -0.0166171, 2.1465, 7.8658538, 2.1465, 18.2317085, 2.1465, -20.3048782, , , , , , , , , , , , , , , , , , , , , , 
0.0830769, -0.0882887, 2.16, 20, 2.16, 29.6341476, 2.16, -20.2439022, 0.0830769, 0.0985275, 2.16, -30.7317085, 2.16, 6.3414636, 2.16, 7.5, 0.0830769, -0.1185016, 2.16, 44.6341476, 2.16, 0.1219512, 2.16, 47.1341476, 0.0830769, -0.0229953, 2.16, -8.5365858, 2.16, 1.8902439, 2.16, -2.8658538, 0.0830769, -0.0424659, 2.16, -52.7439041, 2.16, 37.1341476, 2.16, -13.780488, 0.0830769, -0.0031891, 2.16, -51.8292694, 2.16, -7.7439027, 2.16, 48.3536606, 0.0830769, 0.0028534, 2.16, 42.2560997, 2.16, 29.8780499, 2.16, 8.1097565, 0.0830769, -0.0297093, 2.16, 2.7439024, 2.16, -0.5487805, 2.16, -19.3292694, , , , , , , , , , , , , , , , , , , , , , 
0.0835962, -0.0867781, 2.1735, 26.0975609, 2.1735, 25.060976, 2.1735, -22.8658543, 0.0835962, 0.0921492, 2.1735, -25.8536587, 2.1735, 0.3048781, 2.1735, 6.4024391, 0.0835962, -0.1354543, 2.1735, 45.1219521, 2.1735, -3.6585367, 2.1735, 46.7073174, 0.0835962, -0.090135, 2.1735, -9.0243902, 2.1735, -16.0365849, 2.1735, 1.097561, 0.0835962, -0.0315557, 2.1735, -57.3170738, 2.1735, 36.8902435, 2.1735, -7.0731707, 0.0835962, -0.0072175, 2.1735, -51.7073174, 2.1735, 0.7926829, 2.1735, 47.5, 0.0835962, -0.0199741, 2.1735, 49.6341476, 2.1735, 37.0121956, 2.1735, 4.2682929, 0.0835962, -0.0370947, 2.1735, 2.804878, 2.1735, -16.1585369, 2.1735, -17.9268303, , , , , , , , , , , , , , , , , , , , , , 
0.0841154, -0.0874495, 2.187, 25.7926826, 2.187, 19.3902435, 2.187, -25.060976, 0.0841154, 0.079057, 2.187, -22.0121956, 2.187, 0.4878049, 2.187, 7.9878049, 0.0841154, -0.1482109, 2.187, 42.9878044, 2.187, -5.3048782, 2.187, 43.5975609, 0.0841154, -0.0847639, 2.187, -9.0243902, 2.187, -21.4634151, 2.187, 2.2560976, 0.0841154, -0.040116, 2.187, -63.2317085, 2.187, 38.2926826, 2.187, -0.9146342, 0.0841154, -0.018967, 2.187, -49.8780518, 2.187, 13.3536587, 2.187, 44.0243912, 0.0841154, -0.0414588, 2.187, 53.9634171, 2.187, 41.7073174, 2.187, 0.3658537, 0.0841154, -0.0297093, 2.187, 2.195122, 2.187, -16.8902435, 2.187, -17.0121956, , , , , , , , , , , , , , , , , , , , , , 
0.0846346, -0.0864424, 2.2005, 20.6097565, 2.2005, 13.5365858, 2.2005, -25.060976, 0.0846346, 0.0619364, 2.2005, -24.5731716, 2.2005, 1.8902439, 2.2005, 10.7926836, 0.0846346, -0.1381399, 2.2005, 41.7073174, 2.2005, 7.9268293, 2.2005, 44.4512215, 0.0846346, 0.0528725, 2.2005, -5.5487804, 2.2005, -18.5365849, 2.2005, 1.5853659, 0.0846346, -0.0584115, 2.2005, -65.7317123, 2.2005, 39.2682953, 2.2005, 2.0731707, 0.0846346, -0.0263523, 2.2005, -52.2560997, 2.2005, 27.560976, 2.2005, 42.9878044, 0.0846346, -0.0548867, 2.2005, 54.8170738, 2.2005, 44.3292694, 2.2005, -4.6951222, 0.0846346, -0.0182956, 2.2005, 0.8536586, 2.2005, -13.2317076, 2.2005, -16.2195129, , , , , , , , , , , , , , , , , , , , , , 
0.0851538, -0.0854353, 2.214, 18.4756107, 2.214, 13.0487804, 2.214, -25.1219521, 0.0851538, 0.0399481, 2.214, -26.8292694, 2.214, 2.5, 2.214, 13.5365858, 0.0851538, -0.0820783, 2.214, 39.7560997, 2.214, 21.0975609, 2.214, 49.1463432, 0.0851538, 0.1606317, 2.214, -2.5, 2.214, -7.0731707, 2.214, 0.9146342, 0.0851538, -0.0649577, 2.214, -69.1463394, 2.214, 40.1219521, 2.214, 7.9878049, 0.0851538, -0.0229953, 2.214, -56.1585388, 2.214, 42.3170738, 2.214, 43.2317085, 0.0851538, -0.0619364, 2.214, 51.8292694, 2.214, 44.5731735, 2.214, -11.9512196, 0.0851538, -0.0142672, 2.214, -0.3658537, 2.214, -3.5975611, 2.214, -15.3658543, , , , , , , , , , , , , , , , , , , , , , 
0.0856731, -0.0896315, 2.2275, 16.3414631, 2.2275, 18.4146347, 2.2275, -25.7317085, 0.0856731, 0.0132601, 2.2275, -27.1951218, 2.2275, 4.8780489, 2.2275, 15.060976, 0.0856731, -0.0085603, 2.2275, 30.6707325, 2.2275, 37.6829262, 2.2275, 54.0853653, 0.0856731, 0.1341115, 2.2275, 0.1219512, 2.2275, 2.3170731, 2.2275, 2.195122, 0.0856731, -0.0330663, 2.2275, -72.5, 2.2275, 37.6829262, 2.2275, 13.9634151, 0.0856731, -0.0142672, 2.2275, -57.1951218, 2.2275, 46.7682953, 2.2275, 37.8048782, 0.0856731, -0.0666361, 2.2275, 45.7317085, 2.2275, 43.3536606, 2.2275, -19.2073174, 0.0856731, -0.0162814, 2.2275, -3.0487804, 2.2275, 4.8780489, 2.2275, -16.4634151, , , , , , , , , , , , , , , , , , , , , , 
0.0861923, -0.0976883, 2.241, 14.0853662, 2.241, 27.560976, 2.241, -25.060976, 0.0861923, -0.0149386, 2.241, -27.3170738, 2.241, 11.4024391, 2.241, 14.6341467, 0.0861923, 0.0594186, 2.241, 22.2560978, 2.241, 56.1585388, 2.241, 55.0609779, 0.0861923, 0.0468299, 2.241, 1.2804878, 2.241, 2.7439024, 2.241, 2.2560976, 0.0861923, 0.0125887, 2.241, -75.6097565, 2.241, 34.1463432, 2.241, 19.7560978, 0.0861923, -0.0011749, 2.241, -56.7073174, 2.241, 58.2926826, 2.241, 31.341465, 0.0861923, -0.070161, 2.241, 41.1585388, 2.241, 45.6707344, 2.241, -24.3292694, 0.0861923, -0.0196384, 2.241, -4.6341462, 2.241, 7.7439027, 2.241, -16.0365849, , , , , , , , , , , , , , , , , , , , , , 
0.0867115, -0.0998703, 2.2545, 13.5975609, 2.2545, 36.5243912, 2.2545, -22.0121956, 0.0867115, -0.0409552, 2.2545, -27.9268303, 2.2545, 19.2073174, 2.2545, 12.4390249, 0.0867115, 0.0874495, 2.2545, 11.9512196, 2.2545, 76.8902435, 2.2545, 48.4146347, 0.0867115, -0.0381018, 2.2545, 1.5243902, 2.2545, -3.4146342, 2.2545, 0.3658537, 0.0867115, 0.0454871, 2.2545, -76.2195129, 2.2545, 32.4390259, 2.2545, 26.5853672, 0.0867115, 0.0129244, 2.2545, -54.6341476, 2.2545, 75.18293, 2.2545, 28.6585369, 0.0867115, -0.0721752, 2.2545, 41.7073174, 2.2545, 52.6829262, 2.2545, -28.0487804, 0.0867115, -0.0213169, 2.2545, -4.9390244, 2.2545, 5.1829271, 2.2545, -13.4146347, , , , , , , , , , , , , , , , , , , , , , 
0.0872308, -0.0897993, 2.268, 14.6341467, 2.268, 43.1707344, 2.268, -17.8658543, 0.0872308, -0.0632792, 2.268, -26.7682934, 2.268, 26.5853672, 2.268, 9.9390249, 0.0872308, 0.0629435, 2.268, -8.3536587, 2.268, 117.86586, 2.268, 36.5243912, 0.0872308, -0.0844282, 2.268, 1.7073171, 2.268, -7.6829271, 2.268, -0.3658537, 0.0872308, 0.0619364, 2.268, -75.4878082, 2.268, 33.841465, 2.268, 36.4634171, 0.0872308, 0.0283665, 2.268, -44.3292694, 2.268, 118.4146347, 2.268, 20.8536587, 0.0872308, -0.0763714, 2.268, 42.9268303, 2.268, 65.4268341, 2.268, -31.6463413, 0.0872308, -0.0169528, 2.268, -4.0853658, 2.268, -0.0609756, 2.268, -11.9512196, , , , , , , , , , , , , , , , , , , , , , 
