Application:, Trigno Discover (2.0.1.3)
Date/Time:, 04-Nov-25 14:47:30
Collection Length (seconds):, 2.997
 Hamstrings right (85641), Hamstrings right (85641), Hamstrings right (85641), Hamstrings right (85641), Hamstrings right (85641), Hamstrings right (85641), Hamstrings right (85641), Hamstrings right (85641),  Rectus Femoris right (85844),  Rectus Femoris right (85844),  Rectus Femoris right (85844),  Rectus Femoris right (85844),  Rectus Femoris right (85844),  Rectus Femoris right (85844),  Rectus Femoris right (85844),  Rectus Femoris right (85844),  Gastrocnemius left (85904), , , , , , , , TibilaisÂ Anterior right (85650), , , , , , , ,  Hamstrings left (85586), , , , , , , , TibilaisÂ Anterior left (85605), , , , , , , ,  Rectus Femoris left (85878), , , , , , , ,  Gastrocnemius right (85873)
EMG 1 Time Series (s), EMG 1 (mV), GYRO X Time Series (s), GYRO X (deg/s), GYRO Y Time Series (s), GYRO Y (deg/s), GYRO Z Time Series (s), GYRO Z (deg/s), EMG 1 Time Series (s), EMG 1 (mV), GYRO X Time Series (s), GYRO X (deg/s), GYRO Y Time Series (s), GYRO Y (deg/s), GYRO Z Time Series (s), GYRO Z (deg/s), EMG 1 Time Series (s), EMG 1 (mV), GYRO X Time Series (s), GYRO X (deg/s), GYRO Y Time Series (s), GYRO Y (deg/s), GYRO Z Time Series (s), GYRO Z (deg/s), EMG 1 Time Series (s), EMG 1 (mV), GYRO X Time Series (s), GYRO X (deg/s), GYRO Y Time Series (s), GYRO Y (deg/s), GYRO Z Time Series (s), GYRO Z (deg/s), EMG 1 Time Series (s), EMG 1 (mV), GYRO X Time Series (s), GYRO X (deg/s), GYRO Y Time Series (s), GYRO Y (deg/s), GYRO Z Time Series (s), GYRO Z (deg/s), EMG 1 Time Series (s), EMG 1 (mV), GYRO X Time Series (s), GYRO X (deg/s), GYRO Y Time Series (s), GYRO Y (deg/s), GYRO Z Time Series (s), GYRO Z (deg/s), EMG 1 Time Series (s), EMG 1 (mV), GYRO X Time Series (s), GYRO X (deg/s), GYRO Y Time Series (s), GYRO Y (deg/s), GYRO Z Time Series (s), GYRO Z (deg/s), EMG 1 Time Series (s), EMG 1 (mV), GYRO X Time Series (s), GYRO X (deg/s), GYRO Y Time Series (s), GYRO Y (deg/s), GYRO Z Time Series (s), GYRO Z (deg/s)
0, -0.023331, 0, -80.3048782, 0, 58.3536606, 0, 3.3536587, 0, -0.0538796, 0, 48.4756126, 0, 105.0609818, 0, -12.0731707, 0, -0.0337377, 0, -63.1097565, 0, 87.9878082, 0, -53.4146347, 0, 0.0693217, 0, -7.6219516, 0, 6.9512196, 0, -18.5975609, 0, 0.064622, 0, 128.7195129, 0, 153.9634247, 0, 120.2439041, 0, 0.0597543, 0, 85.2439041, 0, 127.86586, 0, 4.8780489, 0, 0.0172885, 0, -139.8170776, 0, 200.1829376, 0, -100.4268341, 0, 0.0058747, 0, 11.280488, 0, 10.9146347, 0, -18.0487804, , , , , , , , , , , , , , , , , , , , , , 
0.0005192, -0.0236667, 0.0135, -85.5487823, 0.0135, 23.0487804, 0.0135, 22.3170738, 0.0005192, -0.0713359, 0.0135, 62.7439041, 0.0135, 104.0853653, 0.0135, -28.780489, 0.0005192, -0.0327306, 0.0135, -86.4634171, 0.0135, 11.1585369, 0.0135, -59.5731735, 0.0005192, 0.1305867, 0.0135, -46.7682953, 0.0135, 61.2195129, 0.0135, -16.8292694, 0.0005192, 0.0491798, 0.0135, 172.1341553, 0.0135, 122.1951218, 0.0135, 139.7561035, 0.0005192, 0.0515297, 0.0135, 0, 0.0135, 0, 0.0135, 0, 0.0005192, 0.014435, 0.0135, -167.9878082, 0.0135, 30.3658543, 0.0135, -103.0487823, 0.0005192, 0.0025177, 0.0135, 16.9512196, 0.0135, 86.7682953, 0.0135, -43.0487823, , , , , , , , , , , , , , , , , , , , , , 
0.0010385, -0.0246738, 0.027, -95.8536606, 0.027, 4.2073174, 0.027, 43.9024391, 0.0010385, -0.0743572, 0.027, 93.7804871, 0.027, -17.2560978, 0.027, -49.3902435, 0.0010385, -0.0313878, 0.027, -98.7195129, 0.027, 214.2073212, 0.027, -48.5365868, 0.0010385, 0.0817426, 0.027, -73.9024429, 0.027, 103.7195129, 0.027, -10.5487804, 0.0010385, 0.014435, 0.027, 145.6097565, 0.027, 148.2317047, 0.027, 125.6097565, 0.0010385, 0.0558938, 0.027, 0, 0.027, 0, 0.027, 0, 0.0010385, 0.0095674, 0.027, -155.9756165, 0.027, 57.2560997, 0.027, -81.4024429, 0.0010385, 0.0001678, 0.027, 12.9878054, 0.027, 148.4756165, 0.027, -65.6707306, , , , , , , , , , , , , , , , , , , , , , 
0.0015577, -0.0256809, 0.0405, -127.2561035, 0.0405, -3.9634147, 0.0405, 64.8780518, 0.0015577, -0.0730144, 0.0405, 118.5975647, 0.0405, -91.0365906, 0.0405, -70.7317123, 0.0015577, -0.0270237, 0.0405, -24.0243912, 0.0405, -7.2560978, 0.0405, -16.4024391, 0.0015577, 0.0058747, 0.0405, -89.2073212, 0.0405, 121.0365906, 0.0405, -7.5, 0.0015577, -0.0256809, 0.0405, 98.4756088, 0.0405, 150.6707306, 0.0405, 95.4268341, 0.0015577, 0.0736858, 0.0405, 0, 0.0405, 0, 0.0405, 0, 0.0015577, 0.0038605, 0.0405, -102.8658524, 0.0405, 152.4390259, 0.0405, -67.1341476, 0.0015577, -0.0005035, 0.0405, 12.8658543, 0.0405, 169.2073212, 0.0405, -78.5365906, , , , , , , , , , , , , , , , , , , , , , 
0.0020769, -0.0276951, 0.054, -157.1951294, 0.054, -0.1829268, 0.054, 73.9024429, 0.0020769, -0.0736858, 0.054, 107.6219559, 0.054, -82.68293, 0.054, -85.1219559, 0.0020769, -0.0216526, 0.054, -26.1585369, 0.054, 110.7317123, 0.054, -27.6219521, 0.0020769, 0.0344091, 0.054, -102.3780518, 0.054, 103.6585388, 0.054, -10.7317076, 0.0020769, -0.0552224, 0.054, 49.0853653, 0.054, 150, 0.054, 81.0975647, 0.0020769, 0.0622721, 0.054, 0, 0.054, 0, 0.054, 0, 0.0020769, -0.0011749, 0.054, -71.3414688, 0.054, 202.9268341, 0.054, -69.8780518, 0.0020769, 0.0005035, 0.054, 24.3902435, 0.054, 163.7195129, 0.054, -89.8780518, , , , , , , , , , , , , , , , , , , , , , 
0.0025962, -0.0280308, 0.0675, -163.7195129, 0.0675, 23.1097565, 0.0675, 64.6341476, 0.0025962, -0.0626078, 0.0675, 113.0487823, 0.0675, -6.890244, 0.0675, -84.2682953, 0.0025962, -0.0229953, 0.0675, -52.8658562, 0.0675, 92.6219559, 0.0675, -20.7317085, 0.0025962, 0.0595865, 0.0675, -118.0487823, 0.0675, 82.7439041, 0.0675, -16.6463413, 0.0025962, -0.0726787, 0.0675, 49.8170738, 0.0675, 156.9512177, 0.0675, 83.1707306, 0.0025962, 0.0105745, 0.0675, 0, 0.0675, 0, 0.0675, 0, 0.0025962, -0.0048676, 0.0675, -61.8292694, 0.0675, 178.9024506, 0.0675, -74.6341476, 0.0025962, 0.0018463, 0.0675, 43.4756126, 0.0675, 122.9878082, 0.0675, -101.3414688, , , , , , , , , , , , , , , , , , , , , , 
0.0031154, -0.0287022, 0.081, -137.3780518, 0.081, 93.7195129, 0.081, 45.5487823, 0.0031154, -0.0411231, 0.081, 98.3536606, 0.081, 58.4756126, 0.081, -74.8780518, 0.0031154, -0.0280308, 0.081, -43.1097565, 0.081, 53.5975609, 0.081, -17.5, 0.0031154, -0.0193027, 0.081, -130, 0.081, 66.5853653, 0.081, -21.1585369, 0.0031154, -0.0995346, 0.081, 58.7195129, 0.081, 115.36586, 0.081, 84.8170776, 0.0031154, -0.0283665, 0.081, 41.5243912, 0.081, 57.3170738, 0.081, -16.6463413, 0.0031154, -0.0068818, 0.081, -66.6463394, 0.081, 116.5243912, 0.081, -66.5243912, 0.0031154, -0.002182, 0.081, 57.4390259, 0.081, 90.6707306, 0.081, -107.5, , , , , , , , , , , , , , , , , , , , , , 
0.0036346, -0.0297093, 0.0945, -98.7804871, 0.0945, 150.8536682, 0.0945, 27.8048782, 0.0036346, -0.0253452, 0.0945, 89.3292694, 0.0945, 73.9634171, 0.0945, -67.6219559, 0.0036346, -0.0303807, 0.0945, -19.6341476, 0.0945, 14.0243902, 0.0945, -15.4878054, 0.0036346, -0.1319295, 0.0945, -129.6341553, 0.0945, 59.4512215, 0.0945, -19.0853672, 0.0036346, -0.1420005, 0.0945, 67.9268341, 0.0945, 39.5731735, 0.0945, 64.9390259, 0.0036346, -0.0001678, 0.0945, 29.8780499, 0.0945, 41.2195129, 0.0945, -8.2926826, 0.0036346, -0.008896, 0.0945, -82.1341476, 0.0945, 58.5975609, 0.0945, -41.0365868, 0.0036346, -0.0102388, 0.0945, 55.1219521, 0.0945, 95.6097565, 0.0945, -109.146347, , , , , , , , , , , , , , , , , , , , , , 
0.0041538, -0.0297093, 0.108, -69.0243912, 0.108, 157.3780518, 0.108, 15.9756098, 0.0041538, -0.0199741, 0.108, 76.5243912, 0.108, 84.2682953, 0.108, -50.3048782, 0.0041538, -0.0280308, 0.108, -1.0365853, 0.108, 23.9634151, 0.108, -21.7073174, 0.0041538, -0.1237049, 0.108, -121.4634171, 0.108, 55.18293, 0.108, -10.2439022, 0.0041538, -0.1754025, 0.108, 77.6219559, 0.108, 0.6097561, 0.108, 32.0731697, 0.0041538, 0.0686503, 0.108, 21.4634151, 0.108, 35.9756088, 0.108, 6.8292685, 0.0041538, -0.0102388, 0.108, -86.9512253, 0.108, 42.8658562, 0.108, -15.4268293, 0.0041538, -0.0139315, 0.108, 41.4024391, 0.108, 98.1707306, 0.108, -112.9878082, , , , , , , , , , , , , , , , , , , , , , 
0.0046731, -0.0293736, 0.1215, -61.8292694, 0.1215, 147.9878082, 0.1215, 11.7073174, 0.0046731, -0.0164492, 0.1215, 72.9878082, 0.1215, 68.8414688, 0.1215, -36.9512215, 0.0046731, -0.0253452, 0.1215, 3.5365853, 0.1215, 36.341465, 0.1215, -23.780489, 0.0046731, 0.0003357, 0.1215, -117.3170776, 0.1215, 53.5365868, 0.1215, -1.9512196, 0.0046731, -0.1730526, 0.1215, 73.6585388, 0.1215, 6.8292685, 0.1215, 16.2195129, 0.0046731, 0.1084306, 0.1215, 16.4024391, 0.1215, 45.7317085, 0.1215, 16.7073174, 0.0046731, -0.0115816, 0.1215, -77.9268341, 0.1215, 49.6341476, 0.1215, -3.3536587, 0.0046731, -0.0129244, 0.1215, 32.6219521, 0.1215, 88.7195129, 0.1215, -115.7317123, , , , , , , , , , , , , , , , , , , , , , 
0.0051923, -0.0292058, 0.135, -55.18293, 0.135, 110.9756088, 0.135, 8.1097565, 0.0051923, -0.0045319, 0.135, 68.4146347, 0.135, 72.1341476, 0.135, -34.5731697, 0.0051923, -0.0251774, 0.135, -1.1585366, 0.135, 49.5731735, 0.135, -25.9756107, 0.0051923, 0.0891279, 0.135, -115.5487823, 0.135, 53.9024391, 0.135, 1.7682927, 0.0051923, -0.1445182, 0.135, 68.9634171, 0.135, 40.4268303, 0.135, 21.0975609, 0.0051923, 0.1028916, 0.135, 21.280489, 0.135, 70.6097565, 0.135, 19.3292694, 0.0051923, -0.0149386, 0.135, -67.8048782, 0.135, 67.1341476, 0.135, -4.6341462, 0.0051923, -0.012253, 0.135, 31.2195129, 0.135, 86.3414688, 0.135, -115.36586, , , , , , , , , , , , , , , , , , , , , , 
0.0057115, -0.0293736, 0.1485, -47.0121956, 0.1485, 69.7560959, 0.1485, 11.5243902, 0.0057115, 0.0157778, 0.1485, 56.4634171, 0.1485, 49.9390259, 0.1485, -39.4512215, 0.0057115, -0.0270237, 0.1485, -7.6219516, 0.1485, 74.0243912, 0.1485, -29.2682934, 0.0057115, 0.0763714, 0.1485, -114.3902435, 0.1485, 54.4512215, 0.1485, 1.8902439, 0.0057115, -0.1223621, 0.1485, 58.9024391, 0.1485, 73.4146347, 0.1485, 28.3536587, 0.0057115, 0.0773785, 0.1485, 23.780489, 0.1485, 66.7682953, 0.1485, 17.2560978, 0.0057115, -0.0191348, 0.1485, -60.6707344, 0.1485, 88.5975647, 0.1485, -12.8048782, 0.0057115, -0.0117494, 0.1485, 31.1585369, 0.1485, 89.6951218, 0.1485, -111.1585388, , , , , , , , , , , , , , , , , , , , , , 
0.0062308, -0.0276951, 0.162, -37.8048782, 0.162, 45.9146347, 0.162, 15.8536587, 0.0062308, 0.0347448, 0.162, 35.5487823, 0.162, 57.9268303, 0.162, -40.4268303, 0.0062308, -0.0290379, 0.162, -0.7926829, 0.162, 54.0243912, 0.162, -20.6097565, 0.0062308, 0.0072175, 0.162, -106.5853653, 0.162, 56.341465, 0.162, -1.2195122, 0.0062308, -0.1082628, 0.162, 55.3048782, 0.162, 76.3414688, 0.162, 28.841465, 0.0062308, 0.0518654, 0.162, 16.4024391, 0.162, 43.1097565, 0.162, 14.5121956, 0.0062308, -0.0203098, 0.162, -57.3170738, 0.162, 100.2439041, 0.162, -15.2439032, 0.0062308, -0.0125887, 0.162, 32.0731697, 0.162, 87.6219559, 0.162, -99.0243912, , , , , , , , , , , , , , , , , , , , , , 
0.00675, -0.0263523, 0.1755, -26.4634151, 0.1755, 48.5365868, 0.1755, 22.439024, 0.00675, 0.0461585, 0.1755, 27.0121956, 0.1755, 48.2317085, 0.1755, -36.0365868, 0.00675, -0.0270237, 0.1755, 22.9268303, 0.1755, 18.1097565, 0.1755, -14.3902445, 0.00675, -0.0458228, 0.1755, -92.8048782, 0.1755, 57.7439041, 0.1755, -7.1341467, 0.00675, -0.0854353, 0.1755, 50.1219521, 0.1755, 63.9024391, 0.1755, 22.8048782, 0.00675, 0.040116, 0.1755, 4.8170733, 0.1755, 9.4512196, 0.1755, 23.2926826, 0.00675, -0.0193027, 0.1755, -56.0365868, 0.1755, 87.2560959, 0.1755, -11.9512196, 0.00675, -0.0159457, 0.1755, 32.2560997, 0.1755, 100.3048782, 0.1755, -83.6585388, , , , , , , , , , , , , , , , , , , , , , 
0.0072692, -0.0270237, 0.189, -9.0853662, 0.189, 56.9512215, 0.189, 23.3536587, 0.0072692, 0.0542153, 0.189, 21.0975609, 0.189, 52.9878044, 0.189, -28.9634151, 0.0072692, -0.0216526, 0.189, 38.3536606, 0.189, 4.8170733, 0.189, -19.7560978, 0.0072692, 0.0139315, 0.189, -82.1341476, 0.189, 57.8658562, 0.189, -14.0853662, 0.0072692, -0.057908, 0.189, 52.7439041, 0.189, 36.6463432, 0.189, 11.219512, 0.0072692, 0.030045, 0.189, 3.2926829, 0.189, -0.0609756, 0.189, 36.1585388, 0.0072692, -0.017792, 0.189, -59.8170738, 0.189, 46.8292694, 0.189, -0.2439024, 0.0072692, -0.0169528, 0.189, 35.4878044, 0.189, 84.6341476, 0.189, -69.6951218, , , , , , , , , , , , , , , , , , , , , , 
0.0077885, -0.0273594, 0.2025, 16.5243912, 0.2025, 68.5975647, 0.2025, 22.560976, 0.0077885, 0.0678111, 0.2025, -0.4878049, 0.2025, 48.7195129, 0.2025, -22.1951218, 0.0077885, -0.0157778, 0.2025, 42.1341476, 0.2025, 18.1707325, 0.2025, -26.1585369, 0.0077885, 0.1109483, 0.2025, -70.6707306, 0.2025, 58.4146347, 0.2025, -17.0731716, 0.0077885, -0.0399481, 0.2025, 53.0487823, 0.2025, 10.3658543, 0.2025, -4.0853658, 0.0077885, -0.0065461, 0.2025, 7.5609756, 0.2025, 11.5243902, 0.2025, 49.3292694, 0.0077885, -0.01561, 0.2025, -61.8292694, 0.2025, 12.6219511, 0.2025, 13.7195129, 0.0077885, -0.0149386, 0.2025, 34.9390259, 0.2025, 75.5487823, 0.2025, -58.4146347, , , , , , , , , , , , , , , , , , , , , , 
0.0083077, -0.0260166, 0.216, 47.1341476, 0.216, 62.68293, 0.216, 23.780489, 0.0083077, 0.0847639, 0.216, -30, 0.216, 40.0609779, 0.216, -16.9512196, 0.0083077, -0.012253, 0.216, 52.2560997, 0.216, 22.1951218, 0.216, -33.7195129, 0.0083077, 0.1226978, 0.216, -60, 0.216, 69.5731735, 0.216, -17.0731716, 0.0083077, -0.0350805, 0.216, 43.6585388, 0.216, 3.5365853, 0.216, -20.1829281, 0.0083077, -0.0760357, 0.216, 8.5365858, 0.216, 22.3170738, 0.216, 58.0487823, 0.0083077, -0.0142672, 0.216, -52.9268303, 0.216, -10.3658543, 0.216, 26.280489, 0.0083077, -0.012253, 0.216, 27.5, 0.216, 88.2926865, 0.216, -48.7804871, , , , , , , , , , , , , , , , , , , , , , 
0.0088269, -0.0260166, 0.2295, 65.6707306, 0.2295, 47.9268303, 0.2295, 30.1219521, 0.0088269, 0.0921492, 0.2295, -50.7317085, 0.2295, 42.2560997, 0.2295, -15.6707325, 0.0088269, -0.0085603, 0.2295, 70.3658524, 0.2295, -2.3170731, 0.2295, -35.9146347, 0.0088269, 0.1030594, 0.2295, -49.8170738, 0.2295, 97.5609741, 0.2295, -13.6585369, 0.0088269, -0.0340734, 0.2295, 26.5853672, 0.2295, 19.5731716, 0.2295, -36.4634171, 0.0088269, -0.1371328, 0.2295, 4.9390244, 0.2295, 11.4024391, 0.2295, 72.6219559, 0.0088269, -0.0146029, 0.2295, -38.1707344, 0.2295, -6.4024391, 0.2295, 40.1219521, 0.0088269, -0.0109102, 0.2295, 15.6097565, 0.2295, 103.2926865, 0.2295, -39.9390259, , , , , , , , , , , , , , , , , , , , , , 
0.0093462, -0.0270237, 0.243, 73.7804871, 0.243, 42.6829262, 0.243, 38.6585388, 0.0093462, 0.0797284, 0.243, -68.5365906, 0.243, 57.5, 0.243, -17.6219521, 0.0093462, -0.005539, 0.243, 92.1951218, 0.243, -46.9512215, 0.243, -42.1341476, 0.0093462, 0.111284, 0.243, -38.7195129, 0.243, 118.5975647, 0.243, -11.7682934, 0.0093462, -0.040116, 0.243, 12.5, 0.243, 38.9634171, 0.243, -56.5243912, 0.0093462, -0.1567712, 0.243, 1.3414634, 0.243, -29.5121956, 0.243, 84.8780518, 0.0093462, -0.0149386, 0.243, -19.6341476, 0.243, 22.0121956, 0.243, 54.2073174, 0.0093462, -0.0135958, 0.243, -0.1829268, 0.243, 141.3414612, 0.243, -25.5487804, , , , , , , , , , , , , , , , , , , , , , 
0.0098654, -0.0276951, 0.2565, 80.1219559, 0.2565, 50.4878044, 0.2565, 43.5975609, 0.0098654, 0.0548867, 0.2565, -83.6585388, 0.2565, 88.5975647, 0.2565, -21.5853672, 0.0098654, -0.005539, 0.2565, 110.4878082, 0.2565, -75, 0.2565, -60.9756126, 0.0098654, 0.0975204, 0.2565, -34.0243912, 0.2565, 172.5609741, 0.2565, -15.2439032, 0.0098654, -0.0485084, 0.2565, -2.8658538, 0.2565, 49.8170738, 0.2565, -77.0731735, 0.0098654, -0.145861, 0.2565, 13.2926836, 0.2565, -35.9146347, 0.2565, 100.6097565, 0.0098654, -0.0149386, 0.2565, -2.3780489, 0.2565, 46.2195129, 0.2565, 63.2926826, 0.0098654, -0.0182956, 0.2565, -10, 0.2565, 194.0853729, 0.2565, -11.5853662, , , , , , , , , , , , , , , , , , , , , , 
0.0103846, -0.0263523, 0.27, 86.9512253, 0.27, 44.2682953, 0.27, 42.5, 0.0103846, 0.030045, 0.27, -90.7926865, 0.27, 106.8292694, 0.27, -23.4146347, 0.0103846, -0.0065461, 0.27, 111.646347, 0.27, -80.6097565, 0.27, -95.4878082, 0.0103846, 0.0327306, 0.27, -34.2682953, 0.27, 242.86586, 0.27, -24.5731716, 0.0103846, -0.0466621, 0.27, -27.9878063, 0.27, 58.6585388, 0.27, -94.6951218, 0.0103846, -0.1346151, 0.27, 45.5487823, 0.27, 22.7439022, 0.27, 121.8902435, 0.0103846, -0.017792, 0.27, 9.6341467, 0.27, 57.1341476, 0.27, 67.5609741, 0.0103846, -0.0213169, 0.27, -11.6463413, 0.27, 227.3780518, 0.27, 16.4024391, , , , , , , , , , , , , , , , , , , , , , 
0.0109038, -0.0250095, 0.2835, 87.6219559, 0.2835, 20.9146347, 0.2835, 33.2317085, 0.0109038, 0.0078889, 0.2835, -101.2804871, 0.2835, 136.3414612, 0.2835, -23.7195129, 0.0109038, -0.0078889, 0.2835, 69.4512177, 0.2835, -0.5487805, 0.2835, -144.7561035, 0.0109038, -0.0443122, 0.2835, -26.0975609, 0.2835, 316.2195129, 0.2835, -43.4146347, 0.0109038, -0.0417945, 0.2835, -61.2195129, 0.2835, 78.8414688, 0.2835, -110, 0.0109038, -0.1367971, 0.2835, 97.8048782, 0.2835, 143.9024353, 0.2835, 155.1829376, 0.0109038, -0.0218204, 0.2835, 29.0243912, 0.2835, 82.8048782, 0.2835, 73.5365906, 0.0109038, -0.0243381, 0.2835, -8.780488, 0.2835, 258.2926941, 0.2835, 35.1219521, , , , , , , , , , , , , , , , , , , , , , 
0.0114231, -0.0243381, 0.297, 84.8780518, 0.297, 37.8658562, 0.297, 38.6585388, 0.0114231, 0.0015106, 0.297, -115.18293, 0.297, 159.146347, 0.297, -21.6463413, 0.0114231, -0.0082246, 0.297, 31.4024391, 0.297, 253.7195129, 0.297, -187.1341553, 0.0114231, -0.1169909, 0.297, -19.6341476, 0.297, 372.5, 0.297, -79.6951218, 0.0114231, -0.0438087, 0.297, -94.6341476, 0.297, 111.1585388, 0.297, -119.6341476, 0.0114231, -0.1079271, 0.297, 143.9024353, 0.297, 287.8658752, 0.297, 198.5365906, 0.0114231, -0.0243381, 0.297, 65.1219559, 0.297, 120.3048782, 0.297, 77.9268341, 0.0114231, -0.0256809, 0.297, 13.4146347, 0.297, 310.0609741, 0.297, 76.5853653, , , , , , , , , , , , , , , , , , , , , , 
0.0119423, -0.0246738, 0.3105, 88.5975647, 0.3105, 95.7317123, 0.3105, 76.8902435, 0.0119423, 0.0260166, 0.3105, -136.2804871, 0.3105, 136.0975647, 0.3105, -34.3292694, 0.0119423, -0.0068818, 0.3105, 146.5243988, 0.3105, 417.6829224, 0.3105, -222.1341553, 0.0119423, -0.1394827, 0.3105, 1.6463414, 0.3105, 354.2073364, 0.3105, -115.2439041, 0.0119423, -0.0438087, 0.3105, -133.5365906, 0.3105, 154.0853729, 0.3105, -112.68293, 0.0119423, -0.0250095, 0.3105, 91.8902435, 0.3105, 409.6951294, 0.3105, 269.6341553, 0.0119423, -0.0243381, 0.3105, 119.6951218, 0.3105, 132.6829224, 0.3105, 65.9146347, 0.0119423, -0.023331, 0.3105, 39.2682953, 0.3105, 328.23172, 0.3105, 96.7073212, , , , , , , , , , , , , , , , , , , , , , 
0.0124615, -0.023331, 0.324, 99.0853653, 0.324, 71.0975647, 0.324, 93.3536606, 0.0124615, 0.0558938, 0.324, -158.4146423, 0.324, 70.9146347, 0.324, -68.4146347, 0.0124615, -0.0082246, 0.324, 208.5975647, 0.324, 452.6829224, 0.324, -234.8170776, 0.0124615, -0.1032273, 0.324, 17.1341476, 0.324, 321.8292847, 0.324, -126.8292694, 0.0124615, -0.0337377, 0.324, -155.7926941, 0.324, 182.9268341, 0.324, -101.9512253, 0.0124615, 0.0696574, 0.324, 17.6219521, 0.324, 473.9024353, 0.324, 350.1829224, 0.0124615, -0.0240024, 0.324, 167.9878082, 0.324, 127.7439041, 0.324, 30.3048782, 0.0124615, -0.0182956, 0.324, 57.1951218, 0.324, 389.2073364, 0.324, 103.2926865, , , , , , , , , , , , , , , , , , , , , , 
0.0129808, -0.0229953, 0.3375, 151.7682953, 0.3375, 19.8170738, 0.3375, 97.5, 0.0129808, 0.0471656, 0.3375, -195.1829376, 0.3375, 22.3170738, 0.3375, -73.4756088, 0.0129808, -0.0115816, 0.3375, 255.7926941, 0.3375, 499.7561035, 0.3375, -210.4878082, 0.0129808, -0.051194, 0.3375, 48.1097565, 0.3375, 202.1951294, 0.3375, -129.3902435, 0.0129808, -0.0216526, 0.3375, -190.36586, 0.3375, 224.0853729, 0.3375, -70.6097565, 0.0129808, 0.0896315, 0.3375, -29.1463413, 0.3375, 449.0853882, 0.3375, 376.0365906, 0.0129808, -0.0240024, 0.3375, 282.4390259, 0.3375, 228.7804871, 0.3375, -19.3292694, 0.0129808, -0.0105745, 0.3375, 67.0731735, 0.3375, 257.3780518, 0.3375, 109.146347, , , , , , , , , , , , , , , , , , , , , , 
0.0135, -0.0216526, 0.351, 218.1097565, 0.351, -1.6463414, 0.351, 84.2682953, 0.0135, 0.0078889, 0.351, -253.1707306, 0.351, 33.2926826, 0.351, -50.7926826, 0.0135, -0.0142672, 0.351, 279.512207, 0.351, 376.0975647, 0.351, -150.3048859, 0.0135, -0.0280308, 0.351, 82.8048782, 0.351, 70, 0.351, -89.146347, 0.0135, -0.0223239, 0.351, -201.7073212, 0.351, 249.9390259, 0.351, -41.6463432, 0.0135, 0, 0.351, -90.0609741, 0.351, 205.4268341, 0.351, 346.7683105, 0.0135, -0.0243381, 0.351, 315.7926941, 0.351, 376.7683105, 0.351, -42.5609779, 0.0135, -0.0028534, 0.351, 21.4024391, 0.351, -5.670732, 0.351, 76.5853653, , , , , , , , , , , , , , , , , , , , , , 
0.0140192, -0.0184634, 0.3645, 292.9268494, 0.3645, 29.6951218, 0.3645, 86.7073212, 0.0140192, -0.0271916, 0.3645, -311.7073364, 0.3645, -26.0975609, 0.3645, -18.6585369, 0.0140192, -0.0149386, 0.3645, 318.5365906, 0.3645, 61.8292694, 0.3645, -108.7195129, 0.0140192, -0.0243381, 0.3645, 121.5243912, 0.3645, 7.3170733, 0.3645, -25.9756107, 0.0140192, -0.026688, 0.3645, -216.8902435, 0.3645, 283.23172, 0.3645, -21.9512196, 0.0140192, 0, 0.3645, -113.3536606, 0.3645, -2.6219513, 0.3645, 325.6707458, 0.0140192, -0.0226596, 0.3645, 259.0853577, 0.3645, 201.5243988, 0.3645, -25.3658543, 0.0140192, 0.0015106, 0.3645, -50.5487823, 0.3645, -157.3170776, 0.3645, 59.0853691, , , , , , , , , , , , , , , , , , , , , , 
0.0145385, -0.0179599, 0.378, 336.4024353, 0.378, 102.3780518, 0.378, 110.5487823, 0.0145385, -0.04448, 0.378, -325.9146423, 0.378, 136.7682953, 0.378, 2.9878049, 0.0145385, -0.0152743, 0.378, 317.9268494, 0.378, -108.1097565, 0.378, -93.5975647, 0.0145385, -0.0142672, 0.378, 183.2317047, 0.378, -63.4146347, 0.378, -32.8658562, 0.0145385, -0.0298772, 0.378, -240.5487823, 0.378, 348.0487976, 0.378, -22.8658543, 0.0145385, 0, 0.378, -117.6219559, 0.378, -174.9390259, 0.378, 300.6707458, 0.0145385, -0.0167849, 0.378, 265.7926941, 0.378, 245.2439117, 0.378, -13.6585369, 0.0145385, 0.0035248, 0.378, 2.2560976, 0.378, 26.5243912, 0.378, 69.2073212, , , , , , , , , , , , , , , , , , , , , , 
0.0150577, -0.0196384, 0.3915, 300.9756165, 0.3915, 88.9024429, 0.3915, 112.9878082, 0.0150577, -0.0424659, 0.3915, -291.8902588, 0.3915, 214.0243988, 0.3915, -3.0487804, 0.0150577, -0.0162814, 0.3915, 235.36586, 0.3915, -184.9390259, 0.3915, -123.3536606, 0.0150577, -0.0095674, 0.3915, -57.2560997, 0.3915, -436.5853882, 0.3915, -193.8414612, 0.0150577, -0.0226596, 0.3915, -262.6219482, 0.3915, 354.9390259, 0.3915, -64.9390259, 0.0150577, 0, 0.3915, -40.7317085, 0.3915, -192.5, 0.3915, 270.8536682, 0.0150577, -0.0109102, 0.3915, 302.4390259, 0.3915, 221.1585388, 0.3915, 29.7560978, 0.0150577, 0.0052033, 0.3915, 356.9512329, 0.3915, -293.23172, 0.3915, -53.5975609, , , , , , , , , , , , , , , , , , , , , , 
0.0155769, -0.0226596, 0.405, 194.6951294, 0.405, 184.2073212, 0.405, 68.2926865, 0.0155769, -0.033402, 0.405, -156.4634247, 0.405, 136.5243988, 0.405, -21.4024391, 0.0155769, -0.0169528, 0.405, 148.8414612, 0.405, -232.4390259, 0.405, -186.9512177, 0.0155769, -0.0105745, 0.405, 0.9756098, 0.405, -352.3780518, 0.405, -145.4878082, 0.0155769, 0.0035248, 0.405, -289.6341553, 0.405, 316.4634094, 0.405, -151.0975647, 0.0155769, 0, 0.405, 49.2682953, 0.405, -202.1341553, 0.405, 215.36586, 0.0155769, -0.0065461, 0.405, 283.7195129, 0.405, 128.1097565, 0.405, 64.5121994, 0.0155769, 0.0072175, 0.405, 155.6707306, 0.405, -317.012207, 0.405, 64.2682953, , , , , , , , , , , , , , , , , , , , , , 
0.0160962, -0.0243381, 0.4185, 70.3048782, 0.4185, 59.2073174, 0.4185, 38.2317085, 0.0160962, -0.0250095, 0.4185, -104.7561035, 0.4185, 163.4146423, 0.4185, -40.8536606, 0.0160962, -0.0171206, 0.4185, 71.1585388, 0.4185, -290.4878235, 0.4185, -253.1097565, 0.0160962, -0.014435, 0.4185, 83.3536606, 0.4185, -29.0853672, 0.4185, -84.2682953, 0.0160962, 0.0354162, 0.4185, -308.0487976, 0.4185, 319.2683105, 0.4185, -234.6341553, 0.0160962, 0, 0.4185, 109.8780518, 0.4185, -145.4268341, 0.4185, 152.3780518, 0.0160962, -0.0062104, 0.4185, 257.6829224, 0.4185, 142.3780518, 0.4185, 86.0975647, 0.0160962, 0.008896, 0.4185, 44.2682953, 0.4185, -162.8048859, 0.4185, 89.8780518, , , , , , , , , , , , , , , , , , , , , , 
0.0166154, -0.0250095, 0.432, 60.6707344, 0.432, 55.4878044, 0.432, 50.8536606, 0.0166154, -0.0149386, 0.432, -99.9390259, 0.432, 121.2195129, 0.432, -31.5853672, 0.0166154, -0.0166171, 0.432, 44.2073174, 0.432, -260.6097717, 0.432, -254.8170776, 0.0166154, -0.0619364, 0.432, 12.5, 0.432, 141.8292694, 0.432, -32.9878044, 0.0166154, 0.0636149, 0.432, -212.86586, 0.432, 245.4878082, 0.432, -212.012207, 0.0166154, 0, 0.432, 145.7317047, 0.432, -25.7926826, 0.432, 102.8048782, 0.0166154, -0.005539, 0.432, 273.7804871, 0.432, 115.18293, 0.432, 108.9634171, 0.0166154, 0.0119173, 0.432, -3.6585367, 0.432, 229.146347, 0.432, 21.0365868, , , , , , , , , , , , , , , , , , , , , , 
0.0171346, -0.0256809, 0.4455, 46.0365868, 0.4455, 150.4878082, 0.4455, 84.4512253, 0.0171346, -0.0057069, 0.4455, -65.8536606, 0.4455, 219.8780518, 0.4455, -49.2073174, 0.0171346, -0.0176242, 0.4455, -59.6951218, 0.4455, -43.2926826, 0.4455, -157.1341553, 0.0171346, -0.1015488, 0.4455, -64.6951218, 0.4455, 290.4268494, 0.4455, -1.6463414, 0.0171346, 0.0830854, 0.4455, -196.3414612, 0.4455, 170.3048859, 0.4455, -211.1585388, 0.0171346, 0, 0.4455, 157.86586, 0.4455, 34.5121956, 0.4455, 16.280489, 0.0171346, -0.0025177, 0.4455, 345.6097717, 0.4455, 96.1585388, 0.4455, 115.3048782, 0.0171346, 0.0132601, 0.4455, 30.5487804, 0.4455, 190.2439117, 0.4455, -26.7073174, , , , , , , , , , , , , , , , , , , , , , 
0.0176538, -0.0250095, 0.459, 41.2195129, 0.459, 270.73172, 0.459, 125.3048782, 0.0176538, 0.0011749, 0.459, -21.280489, 0.459, 322.0731812, 0.459, -93.8414688, 0.0176538, -0.0204776, 0.459, -270, 0.459, 137.5609741, 0.459, -36.7073174, 0.0176538, -0.0562295, 0.459, -56.1585388, 0.459, 279.8780518, 0.459, -12.6219511, 0.0176538, 0.0767071, 0.459, -275, 0.459, 217.86586, 0.459, -238.8414764, 0.0176538, 0, 0.459, 184.0853729, 0.459, 55.1219521, 0.459, -103.7195129, 0.0176538, -0.0001678, 0.459, 368.7804871, 0.459, 112.4390259, 0.459, 107.3170776, 0.0176538, 0.0099031, 0.459, -2.1341465, 0.459, 213.6585388, 0.459, -23.5365868, , , , , , , , , , , , , , , , , , , , , , 
0.0181731, -0.023331, 0.4725, 52.8048782, 0.4725, 386.2195129, 0.4725, 177.9878082, 0.0181731, 0.0041962, 0.4725, -6.890244, 0.4725, 386.9512329, 0.4725, -123.5975647, 0.0181731, -0.0226596, 0.4725, -384.2683105, 0.4725, 168.1707306, 0.4725, 16.6463413, 0.0181731, 0.0404517, 0.4725, -64.1463394, 0.4725, 248.4146423, 0.4725, -35.9146347, 0.0181731, 0.0532082, 0.4725, -303.9024353, 0.4725, 225, 0.4725, -249.3292694, 0.0181731, 0, 0.4725, 211.5853729, 0.4725, 100, 0.4725, -212.4390259, 0.0181731, -0.002182, 0.4725, 361.5853882, 0.4725, 97.8048782, 0.4725, 116.4024429, 0.0181731, 0.0025177, 0.4725, 23.780489, 0.4725, 210.1219635, 0.4725, -17.0731716, , , , , , , , , , , , , , , , , , , , , , 
0.0186923, -0.0226596, 0.486, 69.4512177, 0.486, 425.1219482, 0.486, 215.6097565, 0.0186923, 0.008896, 0.486, -10.3658543, 0.486, 397.1341553, 0.486, -157.2561035, 0.0186923, -0.0223239, 0.486, -476.2804871, 0.486, 182.6219482, 0.486, 14.5121956, 0.0186923, 0.0938277, 0.486, -28.780489, 0.486, 168.9024506, 0.486, -55.7317085, 0.0186923, 0.0555581, 0.486, -289.5731812, 0.486, 191.7073212, 0.486, -255.4878082, 0.0186923, 0, 0.486, 247.6829376, 0.486, 88.6585388, 0.486, -321.4024353, 0.0186923, -0.0082246, 0.486, 338.4146423, 0.486, 90.2439041, 0.486, 142.4390259, 0.0186923, -0.0046998, 0.486, 31.4024391, 0.486, 201.0365906, 0.486, -2.195122, , , , , , , , , , , , , , , , , , , , , , 
0.0192115, -0.0226596, 0.4995, 85.9146347, 0.4995, 366.8902588, 0.4995, 212.1341553, 0.0192115, 0.0146029, 0.4995, -35.0609779, 0.4995, 353.7195129, 0.4995, -163.9634247, 0.0192115, -0.0236667, 0.4995, -581.9512329, 0.4995, 79.8780518, 0.4995, 17.1951218, 0.0192115, 0.0562295, 0.4995, -5.609756, 0.4995, 142.4390259, 0.4995, -61.2195129, 0.0192115, 0.0767071, 0.4995, -216.9512177, 0.4995, 89.6341476, 0.4995, -232.6829376, 0.0192115, 0, 0.4995, 274.3902588, 0.4995, 54.2682953, 0.4995, -427.5609741, 0.0192115, -0.0135958, 0.4995, 305.0609741, 0.4995, 79.5121994, 0.4995, 162.86586, 0.0192115, -0.0102388, 0.4995, 38.5365868, 0.4995, 135.2439117, 0.4995, 36.4634171, , , , , , , , , , , , , , , , , , , , , , 
0.0197308, -0.0209812, 0.513, 126.5243912, 0.513, 180.7317047, 0.513, 152.5609741, 0.0197308, 0.0213169, 0.513, -111.5853653, 0.513, 227.6219635, 0.513, -158.4756165, 0.0197308, -0.0253452, 0.513, -620.1829224, 0.513, -2.6219513, 0.513, 36.5853653, 0.0197308, -0.0184634, 0.513, 39.1463432, 0.513, 81.7073212, 0.513, -51.9512215, 0.0197308, 0.0862745, 0.513, -181.2195129, 0.513, 11.8902445, 0.513, -204.9390259, 0.0197308, 0, 0.513, 278.3536682, 0.513, 45.1219521, 0.513, -471.2195129, 0.0197308, -0.0152743, 0.513, 249.8170776, 0.513, 70.8536606, 0.513, 160.36586, 0.0197308, -0.0142672, 0.513, 23.4146347, 0.513, 97.0731735, 0.513, 55.6097565, , , , , , , , , , , , , , , , , , , , , , 
0.02025, -0.0196384, 0.5265, 207.8048859, 0.5265, -45.9146347, 0.5265, 117.86586, 0.02025, 0.036759, 0.5265, -182.7439117, 0.5265, 58.2926826, 0.5265, -149.5121918, 0.02025, -0.0261845, 0.5265, -625.1829224, 0.5265, -28.2926826, 0.5265, 57.2560997, 0.02025, -0.0602579, 0.5265, 65.2439041, 0.5265, 47.3780518, 0.5265, -17.8048782, 0.02025, 0.0746929, 0.5265, -176.7073212, 0.5265, 48.2317085, 0.5265, -182.1341553, 0.02025, 0, 0.5265, 272.6829224, 0.5265, -26.8292694, 0.5265, -553.4146729, 0.02025, -0.0139315, 0.5265, 197.2561035, 0.5265, 90.4878082, 0.5265, 152.6219482, 0.02025, -0.0149386, 0.5265, -23.2926826, 0.5265, 88.5365906, 0.5265, 56.5853653, , , , , , , , , , , , , , , , , , , , , , 
0.0207692, -0.0203098, 0.54, 277.7438965, 0.54, -153.7195129, 0.54, 113.4756088, 0.0207692, 0.0587472, 0.54, -219.3292694, 0.54, -80.4878082, 0.54, -152.1341553, 0.0207692, -0.0283665, 0.54, -634.2683105, 0.54, -169.6951294, 0.54, 145.6097565, 0.0207692, -0.0914778, 0.54, 65.3048782, 0.54, 60, 0.54, 18.7195129, 0.0207692, 0.0344091, 0.54, -138.9634247, 0.54, 63.6585388, 0.54, -151.1585388, 0.0207692, 0, 0.54, 230.2439117, 0.54, -127.8048782, 0.54, -642.7438965, 0.0207692, -0.0115816, 0.54, 113.4146347, 0.54, 49.2073174, 0.54, 134.6341553, 0.0207692, -0.0146029, 0.54, -56.4024391, 0.54, 116.4024429, 0.54, 45.7317085, , , , , , , , , , , , , , , , , , , , , , 
0.0212885, -0.0203098, 0.5535, 0, 0.5535, 0, 0.5535, 0, 0.0212885, 0.0693217, 0.5535, -220.6707306, 0.5535, -137.7439117, 0.5535, -125.9756165, 0.0212885, -0.0292058, 0.5535, -761.2195435, 0.5535, -293.7195129, 0.5535, 291.3414612, 0.0212885, -0.1190051, 0.5535, 8.3536587, 0.5535, 152.1341553, 0.5535, -26.4634151, 0.0212885, -0.0238346, 0.5535, 98.6585388, 0.5535, -189.5731812, 0.5535, -112.9878082, 0.0212885, 0, 0.5535, 171.8902435, 0.5535, -226.5243988, 0.5535, -744.3292847, 0.0212885, -0.0109102, 0.5535, -12.3170738, 0.5535, -40.7926826, 0.5535, 117.9878082, 0.0212885, -0.0132601, 0.5535, -0.7926829, 0.5535, 164.7561035, 0.5535, 71.6463394, , , , , , , , , , , , , , , , , , , , , , 
0.0218077, -0.0216526, 0.567, 0, 0.567, 0, 0.567, 0, 0.0218077, 0.0686503, 0.567, -203.3536682, 0.567, -148.5365906, 0.567, -128.9634247, 0.0218077, -0.0287022, 0.567, -728.6585693, 0.567, -445.3658752, 0.567, 307.4390259, 0.0218077, -0.0837568, 0.567, 60.9146347, 0.567, 236.5243988, 0.567, -8.5975609, 0.0218077, -0.0871138, 0.567, 208.4146423, 0.567, -392.9268494, 0.567, 19.3902435, 0.0218077, 0, 0.567, 101.4634171, 0.567, -397.5609741, 0.567, -745.1219482, 0.0218077, -0.008896, 0.567, -172.5, 0.567, -282.9878235, 0.567, 95.4268341, 0.0218077, -0.0102388, 0.567, -35.4878044, 0.567, 262.0731812, 0.567, 106.0365906, , , , , , , , , , , , , , , , , , , , , , 
0.0223269, -0.0243381, 0.5805, 96.5853653, 0.5805, -48.5365868, 0.5805, 108.1707306, 0.0223269, 0.0649577, 0.5805, -133.0487823, 0.5805, -84.8780518, 0.5805, -128.7195129, 0.0223269, -0.0290379, 0.5805, -551.8292847, 0.5805, -558.9024658, 0.5805, 246.1585388, 0.0223269, 0.0035248, 0.5805, 167.2561035, 0.5805, 200.1219635, 0.5805, -12.2560978, 0.0223269, -0.1623102, 0.5805, 202.1951294, 0.5805, -491.2195129, 0.5805, 45.8536606, 0.0223269, 0, 0.5805, 44.0243912, 0.5805, -529.2683105, 0.5805, -663.8414917, 0.0223269, -0.0045319, 0.5805, -271.4024353, 0.5805, -554.2683105, 0.5805, 76.2804871, 0.0223269, -0.0075532, 0.5805, -1.9512196, 0.5805, 260.6097717, 0.5805, 142.3170776, , , , , , , , , , , , , , , , , , , , , , 
0.0228462, -0.0231632, 0.594, 85.18293, 0.594, 19.6341476, 0.594, 142.1951294, 0.0228462, 0.0622721, 0.594, -91.5243912, 0.594, -45.2439041, 0.594, -128.4756165, 0.0228462, -0.027863, 0.594, -456.8902588, 0.594, -538.7195435, 0.594, 245.4878082, 0.0228462, 0.0656291, 0.594, 407.9878235, 0.594, 16.0975609, 0.594, -15.3048782, 0.0228462, -0.2113222, 0.594, 113.4756088, 0.594, -730.975647, 0.594, 71.5243912, 0.0228462, 0, 0.594, 11.280488, 0.594, -570.1829224, 0.594, -578.2927246, 0.0228462, 0.0015106, 0.594, -307.3780518, 0.594, -642.8658447, 0.594, 79.9390259, 0.0228462, -0.0082246, 0.594, -223.5975647, 0.594, 255.2439117, 0.594, 283.23172, , , , , , , , , , , , , , , , , , , , , , 
0.0233654, -0.0209812, 0.6075, 0, 0.6075, 0, 0.6075, 0, 0.0233654, 0.0500191, 0.6075, 11.280488, 0.6075, 0.9146342, 0.6075, -111.646347, 0.0233654, -0.0297093, 0.6075, -310.1829224, 0.6075, -641.0975952, 0.6075, 308.5365906, 0.0233654, 0.054551, 0.6075, 348.7804871, 0.6075, -335.1829224, 0.6075, -202.1341553, 0.0233654, -0.1925231, 0.6075, 159.9390259, 0.6075, -795.2438965, 0.6075, 66.5853653, 0.0233654, 0, 0.6075, -77.68293, 0.6075, -462.743927, 0.6075, -434.9390259, 0.0233654, 0.0075532, 0.6075, -348.1097717, 0.6075, -591.0975952, 0.6075, 78.5975647, 0.0233654, -0.0109102, 0.6075, -72.3170776, 0.6075, -108.3536606, 0.6075, 328.7804871, , , , , , , , , , , , , , , , , , , , , , 
0.0238846, -0.0223239, 0.621, -111.8292694, 0.621, -75.4878082, 0.621, 110.9756088, 0.0238846, 0.0287022, 0.621, 110.1219559, 0.621, -66.2195129, 0.621, -39.5121956, 0.0238846, -0.0323949, 0.621, -130.4878082, 0.621, -582.5609741, 0.621, 314.0853882, 0.0238846, 0.011078, 0.621, 7.4390244, 0.621, -600.4268188, 0.621, -382.3780518, 0.0238846, -0.1475395, 0.621, 148.3536682, 0.621, -683.7195435, 0.621, 63.1707344, 0.0238846, 0, 0.621, -149.6341553, 0.621, -325.9756165, 0.621, -335.8536682, 0.0238846, 0.0092317, 0.621, -367.8658752, 0.621, -519.4512329, 0.621, 26.6463413, 0.0238846, -0.0099031, 0.621, 410.4878235, 0.621, -604.2073364, 0.621, 130.7317047, , , , , , , , , , , , , , , , , , , , , , 
0.0244038, -0.0243381, 0.6345, 0, 0.6345, 0, 0.6345, 0, 0.0244038, 0.0062104, 0.6345, 190.5487823, 0.6345, -392.3780518, 0.6345, 42.1951218, 0.0244038, -0.0305486, 0.6345, -50.3048782, 0.6345, -272.6219482, 0.6345, 227.8048859, 0.0244038, -0.0250095, 0.6345, -172.9268341, 0.6345, -453.4756165, 0.6345, -472.9268494, 0.0244038, -0.1216907, 0.6345, 158.7195129, 0.6345, -682.0731812, 0.6345, 91.7073212, 0.0244038, 0, 0.6345, -221.8292694, 0.6345, -7.0731707, 0.6345, -134.0243988, 0.0244038, 0.0065461, 0.6345, -403.4756165, 0.6345, -514.6951294, 0.6345, -68.5975647, 0.0244038, -0.0041962, 0.6345, 595.4268188, 0.6345, -570.2438965, 0.6345, -24.5731716, , , , , , , , , , , , , , , , , , , , , , 
0.0249231, -0.0229953, 0.648, -344.0243835, 0.648, -439.6341553, 0.648, -119.3292694, 0.0249231, -0.011078, 0.648, 256.7073364, 0.648, -494.3292847, 0.648, 66.9512177, 0.0249231, -0.0263523, 0.648, 282.2561035, 0.648, -34.1463432, 0.648, 31.6463413, 0.0249231, -0.0364233, 0.648, -21.9512196, 0.648, -129.8780518, 0.648, -406.3414612, 0.0249231, -0.1190051, 0.648, 296.5243835, 0.648, -550.4268188, 0.648, 203.9024506, 0.0249231, 0, 0.648, -226.646347, 0.648, -214.8780518, 0.648, 118.4146347, 0.0249231, 0.0025177, 0.648, -404.7561035, 0.648, -600.5487671, 0.648, -203.2926941, 0.0249231, 0.0045319, 0.648, 418.1097717, 0.648, -56.5853653, 0.648, 23.2926826, , , , , , , , , , , , , , , , , , , , , , 
0.0254423, -0.0209812, 0.6615, -430.4878235, 0.6615, -330.3658752, 0.6615, -77.8658524, 0.0254423, -0.0250095, 0.6615, 343.3536682, 0.6615, -612.5609741, 0.6615, -32.6829262, 0.0254423, -0.0248417, 0.6615, 287.3170776, 0.6615, 158.4756165, 0.6615, -168.1707306, 0.0254423, -0.0350805, 0.6615, -2.195122, 0.6615, 222.86586, 0.6615, -378.5975647, 0.0254423, -0.1250477, 0.6615, 165.7317047, 0.6615, -4.390244, 0.6615, -68.8414688, 0.0254423, 0, 0.6615, -75.8536606, 0.6615, -330.8536682, 0.6615, 195.5487823, 0.0254423, -0.0015106, 0.6615, 6.280488, 0.6615, -427.9268494, 0.6615, 73.2317123, 0.0254423, 0.0105745, 0.6615, 324.3902588, 0.6615, 175.4878082, 0.6615, 87.9268341, , , , , , , , , , , , , , , , , , , , , , 
0.0259615, -0.0216526, 0.675, -487.1341553, 0.675, -392.5, 0.675, 62.9268303, 0.0259615, -0.0433051, 0.675, 409.2683105, 0.675, -620.6707764, 0.675, -171.4024506, 0.0259615, -0.0263523, 0.675, 169.3292694, 0.675, -42.4390259, 0.675, -126.9512253, 0.0259615, -0.0527047, 0.675, 145.3048859, 0.675, 215.2439117, 0.675, -391.7073364, 0.0259615, -0.1327687, 0.675, -409.8170776, 0.675, 70.7926865, 0.675, -80.2439041, 0.0259615, 0, 0.675, -5.1219511, 0.675, 65.7317123, 0.675, 292.8048706, 0.0259615, -0.005539, 0.675, 148.5365906, 0.675, 52.8048782, 0.675, 11.8902445, 0.0259615, 0.0130922, 0.675, 216.5243988, 0.675, 353.5975647, 0.675, 251.4024506, , , , , , , , , , , , , , , , , , , , , , 
0.0264808, -0.023331, 0.6885, -601.9512329, 0.6885, -340.6097717, 0.6885, 62.0731735, 0.0264808, -0.063447, 0.6885, 447.6829224, 0.6885, -524.8780518, 0.6885, -136.4024353, 0.0264808, -0.0322271, 0.6885, 214.2073212, 0.6885, 402.3780518, 0.6885, 79.8170776, 0.0264808, -0.0632792, 0.6885, 172.5, 0.6885, 142.0121918, 0.6885, -382.6219482, 0.0264808, -0.1320974, 0.6885, -319.9390259, 0.6885, 34.6951218, 0.6885, -180.6707306, 0.0264808, 0, 0.6885, -113.1097565, 0.6885, 249.4512329, 0.6885, 197.6219482, 0.0264808, -0.0085603, 0.6885, 263.1097717, 0.6885, -109.5121994, 0.6885, 58.6585388, 0.0264808, 0.0117494, 0.6885, 232.1341553, 0.6885, 346.2195129, 0.6885, 396.7683105, , , , , , , , , , , , , , , , , , , , , , 
0.027, -0.0238346, 0.702, -585.0609741, 0.702, -340.7926941, 0.702, -79.3902435, 0.027, -0.0770428, 0.702, 448.8414612, 0.702, -462.743927, 0.702, -82.9268341, 0.027, -0.04448, 0.702, 146.646347, 0.702, -31.8902454, 0.702, 128.4146423, 0.027, -0.0125887, 0.702, 238.7804871, 0.702, -127.1341476, 0.702, -322.0731812, 0.027, -0.1161517, 0.702, -49.2073174, 0.702, -16.7073174, 0.702, -188.1707306, 0.027, 0, 0.702, -181.5243988, 0.702, 14.3902445, 0.702, 95.7926865, 0.027, -0.0104067, 0.702, 248.4146423, 0.702, -37.1341476, 0.702, 94.2682953, 0.027, 0.0075532, 0.702, 205.7317047, 0.702, 197.2561035, 0.702, 430.6097717, , , , , , , , , , , , , , , , , , , , , , 
0.0275192, -0.0224918, 0.7155, -459.0853882, 0.7155, -325.6097717, 0.7155, -103.7195129, 0.0275192, -0.0835889, 0.7155, 475.3658752, 0.7155, -381.7073364, 0.7155, -46.4634171, 0.0275192, -0.0562295, 0.7155, 127.6219559, 0.7155, -264.0243835, 0.7155, 139.5121918, 0.0275192, 0.0522011, 0.7155, 304.0243835, 0.7155, -352.8049011, 0.7155, -277.9878235, 0.0275192, -0.0918135, 0.7155, 213.5975647, 0.7155, -173.5975647, 0.7155, -139.9390259, 0.0275192, 0, 0.7155, -180.7926941, 0.7155, -245.3048859, 0.7155, 10.3658543, 0.0275192, -0.0132601, 0.7155, -77.5, 0.7155, 324.9390259, 0.7155, 223.6585388, 0.0275192, 0.0052033, 0.7155, 62.7439041, 0.7155, -100.9146347, 0.7155, 425.3658752, , , , , , , , , , , , , , , , , , , , , , 
0.0280385, -0.0213169, 0.729, -555.9146729, 0.729, -234.5731812, 0.729, -82.2560959, 0.0280385, -0.0803998, 0.729, 489.4512329, 0.729, -444.6951294, 0.729, -42.3780479, 0.0280385, -0.064622, 0.729, 96.8902435, 0.729, -378.4756165, 0.729, 129.8780518, 0.0280385, 0.0446479, 0.729, 477.6829529, 0.729, -239.2682953, 0.729, -179.5731812, 0.0280385, -0.066804, 0.729, 258.5365906, 0.729, -511.5244141, 0.729, -138.5365906, 0.0280385, 0, 0.729, -160.1829376, 0.729, -351.7683105, 0.729, -32.1341476, 0.0280385, -0.0176242, 0.729, -412.4390259, 0.729, -362.5, 0.729, 226.0365906, 0.0280385, 0.0045319, 0.729, -185.6707306, 0.729, -426.6463623, 0.729, 456.1585388, , , , , , , , , , , , , , , , , , , , , , 
0.0285577, -0.0229953, 0.7425, -615.2438965, 0.7425, -265.3048706, 0.7425, -92.8048782, 0.0285577, -0.063447, 0.7425, 517.8658447, 0.7425, -593.5975952, 0.7425, -75.9756088, 0.0285577, -0.0703288, 0.7425, 83.4756088, 0.7425, -389.0244141, 0.7425, 121.4024429, 0.0285577, -0.0099031, 0.7425, 723.7195435, 0.7425, -77.9878082, 0.7425, -70.1219559, 0.0285577, -0.0433051, 0.7425, 169.0853729, 0.7425, -591.0975952, 0.7425, -146.1585388, 0.0285577, 0, 0.7425, -156.5243988, 0.7425, -351.3414612, 0.7425, -28.841465, 0.0285577, -0.0203098, 0.7425, -412.9878235, 0.7425, -653.9024658, 0.7425, 108.1707306, 0.0285577, 0.0035248, 0.7425, -302.5, 0.7425, -545.3658447, 0.7425, 503.9024658, , , , , , , , , , , , , , , , , , , , , , 
0.0290769, -0.0251774, 0.756, -793.3536987, 0.756, -469.6951294, 0.756, -130.4268341, 0.0290769, -0.0438087, 0.756, 533.2927246, 0.756, -665.975647, 0.756, -119.4512253, 0.0290769, -0.0720073, 0.756, 78.0487823, 0.756, -353.7195129, 0.756, 96.646347, 0.0290769, -0.0428016, 0.756, 818.2927246, 0.756, 61.5243912, 0.756, 17.7439022, 0.0290769, -0.021149, 0.756, 65.6707306, 0.756, -553.9024658, 0.756, -149.4512177, 0.0290769, 0, 0.756, -120.7317123, 0.756, -270, 0.756, -18.4146347, 0.0290769, -0.0186313, 0.756, -89.8170776, 0.756, -444.2683105, 0.756, 89.0243912, 0.0290769, -0.0001678, 0.756, -477.4390259, 0.756, -526.6463623, 0.756, 640.7317505, , , , , , , , , , , , , , , , , , , , , , 
0.0295962, -0.0243381, 0.7695, -897.3780518, 0.7695, -676.4634399, 0.7695, -93.5975647, 0.0295962, -0.0243381, 0.7695, 524.5731812, 0.7695, -695.975647, 0.7695, -137.7439117, 0.0295962, -0.0673075, 0.7695, 62.5609779, 0.7695, -244.512207, 0.7695, 65.2439041, 0.0295962, -0.0095674, 0.7695, 939.8780518, 0.7695, 205.8536682, 0.7695, 163.6585388, 0.0295962, -0.002182, 0.7695, 52.8048782, 0.7695, -479.7561035, 0.7695, -201.2195129, 0.0295962, 0, 0.7695, -77.0121994, 0.7695, -176.3414612, 0.7695, -17.8658543, 0.0295962, -0.0176242, 0.7695, -51.4024391, 0.7695, -525.8536987, 0.7695, 171.5243988, 0.0295962, -0.0045319, 0.7695, -600.9146729, 0.7695, -150.36586, 0.7695, 743.9634399, , , , , , , , , , , , , , , , , , , , , , 
0.0301154, -0.0223239, 0.783, -699.6341553, 0.783, -596.8902588, 0.783, -16.0975609, 0.0301154, 0.005539, 0.783, 493.4146423, 0.783, -647.987793, 0.783, -176.1585388, 0.0301154, -0.0532082, 0.783, 23.1097565, 0.783, -149.7561035, 0.783, 38.4146347, 0.0301154, 0.0629435, 0.783, 1042.4390869, 0.783, 442.3780518, 0.783, 334.0853882, 0.0301154, 0.0105745, 0.783, 75.4268341, 0.783, -403.0487976, 0.783, -210.4268341, 0.0301154, 0, 0.783, -17.6829281, 0.783, -67.68293, 0.783, -27.9268303, 0.0301154, -0.0209812, 0.783, -41.5243912, 0.783, -410.8536682, 0.783, 222.86586, 0.0301154, -0.0068818, 0.783, -740.1219482, 0.783, -38.9024391, 0.783, 802.6219482, , , , , , , , , , , , , , , , , , , , , , 
0.0306346, -0.023331, 0.7965, -491.2195129, 0.7965, -319.2073364, 0.7965, -40.0609779, 0.0306346, 0.0381018, 0.7965, 495.3049011, 0.7965, -551.7073364, 0.7965, -203.8414612, 0.0306346, -0.0377661, 0.7965, -11.1585369, 0.7965, -82.4390259, 0.7965, 6.280488, 0.0306346, 0.0844282, 0.7965, 1110.6097412, 0.7965, 601.6463623, 0.7965, 533.2316895, 0.0306346, 0.0166171, 0.7965, 60.18293, 0.7965, -387.2561035, 0.7965, -195.7926941, 0.0306346, 0, 0.7965, 10.9756098, 0.7965, -32.3780479, 0.7965, -6.3414636, 0.0306346, -0.0273594, 0.7965, -48.841465, 0.7965, -331.6463623, 0.7965, 157.4390259, 0.0306346, -0.0068818, 0.7965, -971.2195435, 0.7965, 21.3414631, 0.7965, 851.2805176, , , , , , , , , , , , , , , , , , , , , , 
0.0311538, -0.0256809, 0.81, -349.3902588, 0.81, -198.1097565, 0.81, -61.8292694, 0.0311538, 0.0580758, 0.81, 462.5, 0.81, -239.8170776, 0.81, -156.2195129, 0.0311538, -0.030045, 0.81, 32.0121956, 0.81, -47.8658562, 0.81, -24.0243912, 0.0311538, 0.040116, 0.81, 1093.8414307, 0.81, 707.2561035, 0.81, 780.4268188, 0.0311538, 0.0159457, 0.81, 25.6097565, 0.81, -303.9634094, 0.81, -147.5, 0.0311538, 0, 0.81, 7.3170733, 0.81, -37.9878044, 0.81, 17.6829281, 0.0311538, -0.0303807, 0.81, -26.0365868, 0.81, -277.6219482, 0.81, 79.2073212, 0.0311538, -0.0062104, 0.81, -1131.0366211, 0.81, 178.0487823, 0.81, 955.975647, , , , , , , , , , , , , , , , , , , , , , 
0.0316731, -0.0251774, 0.8235, -264.7561035, 0.8235, -96.4024429, 0.8235, -86.0975647, 0.0316731, 0.0669718, 0.8235, 318.6585388, 0.8235, 240.7926941, 0.8235, -40.6707344, 0.0316731, -0.0236667, 0.8235, 40.3048782, 0.8235, -104.5121994, 0.8235, -38.9634171, 0.0316731, -0.0280308, 0.8235, 1027.8049316, 0.8235, 411.7683105, 0.8235, 1158.3536377, 0.0316731, 0.01561, 0.8235, 8.9024391, 0.8235, -164.6341553, 0.8235, -72.5, 0.0316731, 0, 0.8235, -4.6951222, 0.8235, -61.2195129, 0.8235, 51.6463432, 0.0316731, -0.030045, 0.8235, -21.7073174, 0.8235, -204.3902435, 0.8235, 64.3292694, 0.0316731, -0.0048676, 0.8235, -1367.1951904, 0.8235, 237.6829376, 0.8235, 819.2683105, , , , , , , , , , , , , , , , , , , , , , 
0.0321923, -0.023331, 0.837, 87.7439041, 0.837, -167.0731812, 0.837, -52.8658562, 0.0321923, 0.0733501, 0.837, 305.8536682, 0.837, 408.5365906, 0.837, 33.4146347, 0.0321923, -0.0169528, 0.837, -40.3048782, 0.837, -193.6585388, 0.837, -3.2926829, 0.0321923, -0.0592508, 0.837, 1043.5975342, 0.837, -93.2926865, 0.837, 1330.9755859, 0.0321923, 0.0307164, 0.837, -43.7195129, 0.837, -53.4146347, 0.837, -35.5487823, 0.0321923, 0, 0.837, 7.6219516, 0.837, -109.2073212, 0.837, 2.3170731, 0.0321923, -0.0285344, 0.837, -11.4634151, 0.837, -114.0243912, 0.837, 45.3658562, 0.0321923, -0.0018463, 0.837, -1708.1097412, 0.837, 102.1951218, 0.837, 481.0975647, , , , , , , , , , , , , , , , , , , , , , 
0.0327115, -0.0223239, 0.8505, -104.0243912, 0.8505, 258.9024353, 0.8505, 210.1219635, 0.0327115, 0.0760357, 0.8505, 175.6097565, 0.8505, 26.9512196, 0.8505, -23.1097565, 0.0327115, -0.0097353, 0.8505, -53.2317085, 0.8505, -225.73172, 0.8505, 54.5121956, 0.0327115, -0.06009, 0.8505, 987.9268799, 0.8505, -531.4024658, 0.8505, 1138.5366211, 0.0327115, 0.0589151, 0.8505, -18.4756107, 0.8505, -54.3292694, 0.8505, -34.7560997, 0.0327115, 0, 0.8505, -13.7195129, 0.8505, -191.4634247, 0.8505, -76.8902435, 0.0327115, -0.0250095, 0.8505, -2.2560976, 0.8505, -32.0121956, 0.8505, 50.6097565, 0.0327115, 0.0005035, 0.8505, -1308.6585693, 0.8505, -719.6951294, 0.8505, 274.5731812, , , , , , , , , , , , , , , , , , , , , , 
0.0332308, -0.0219883, 0.864, -221.4634247, 0.864, -218.0487823, 0.864, 109.2073212, 0.0332308, 0.0718395, 0.864, -247.9878082, 0.864, -837.0731812, 0.864, -280, 0.0332308, -0.0052033, 0.864, -31.8292694, 0.864, -256.1585388, 0.864, 92.7439041, 0.0332308, -0.0525368, 0.864, 1120, 0.864, -555.487793, 0.864, 1006.2195435, 0.0332308, 0.0835889, 0.864, 25.9756107, 0.864, -65.1219559, 0.864, -60.1219521, 0.0332308, 0, 0.864, -57.3780518, 0.864, -252.86586, 0.864, -91.8902435, 0.0332308, -0.0172885, 0.864, -20.2439022, 0.864, -9.6951218, 0.864, 81.0365906, 0.0332308, 0.0025177, 0.864, -890.4268799, 0.864, -733.5975952, 0.864, 446.2804871, , , , , , , , , , , , , , , , , , , , , , 
0.03375, -0.0229953, 0.8775, -214.0243988, 0.8775, -1155.4268799, 0.8775, -520.2438965, 0.03375, 0.0595865, 0.8775, 26.6463413, 0.8775, -892.1341553, 0.8775, 79.8780518, 0.03375, -0.0048676, 0.8775, 8.5975609, 0.8775, -406.2804871, 0.8775, 126.3414688, 0.03375, -0.0468299, 0.8775, 463.1097717, 0.8775, -1722.0732422, 0.8775, 9.5731707, 0.03375, 0.0970169, 0.8775, 103.5365906, 0.8775, -65.7926865, 0.8775, -92.6219559, 0.03375, 0, 0.8775, -69.0243912, 0.8775, -274.5731812, 0.8775, -97.2561035, 0.03375, -0.0028534, 0.8775, -14.5731707, 0.8775, -19.3902435, 0.8775, 116.4634171, 0.03375, 0.0036927, 0.8775, 177.5, 0.8775, -1102.2561035, 0.8775, 175.1829376, , , , , , , , , , , , , , , , , , , , , , 
0.0342692, -0.0243381, 0.891, -257.7438965, 0.891, -1620.3658447, 0.891, -387.1341553, 0.0342692, 0.0439765, 0.891, 374.3292847, 0.891, -853.5366211, 0.891, -79.2682953, 0.0342692, -0.005539, 0.891, -65, 0.891, -247.2561035, 0.891, 129.4512177, 0.0342692, -0.0229953, 0.891, 247.6219635, 0.891, 734.2683105, 0.891, 459.8170776, 0.0342692, 0.1008774, 0.891, 209.2682953, 0.891, -90.1219559, 0.891, -115.3048782, 0.0342692, 0, 0.891, -59.8780518, 0.891, -232.3780518, 0.891, -134.0853729, 0.0342692, 0.012253, 0.891, -40.5487823, 0.891, -46.9512215, 0.891, 147.9878082, 0.0342692, 0.0077211, 0.891, -644.0244141, 0.891, 484.1463623, 0.891, 58.7195129, , , , , , , , , , , , , , , , , , , , , , 
0.0347885, -0.0243381, 0.9045, -445.243927, 0.9045, -53.2317085, 0.9045, -51.7073174, 0.0347885, 0.0327306, 0.9045, 825.9146729, 0.9045, -458.2926941, 0.9045, -228.7195129, 0.0347885, -0.0073854, 0.9045, -151.2195129, 0.9045, -289.2683105, 0.9045, 86.0365906, 0.0347885, 0.0058747, 0.9045, -18.1097565, 0.9045, 1301.8902588, 0.9045, 481.1585388, 0.0347885, 0.1042344, 0.9045, 227.6829376, 0.9045, -104.6341476, 0.9045, -174.9390259, 0.0347885, 0, 0.9045, 11.5853662, 0.9045, -277.2561035, 0.9045, -176.1585388, 0.0347885, 0.0199741, 0.9045, -120.36586, 0.9045, 4.0853658, 0.9045, 148.9634247, 0.0347885, 0.0095674, 0.9045, -618.5366211, 0.9045, 1246.2805176, 0.9045, 18.1707325, , , , , , , , , , , , , , , , , , , , , , 
0.0353077, -0.0253452, 0.918, -195, 0.918, -276.4634094, 0.918, 242.3170776, 0.0353077, 0.0307164, 0.918, 442.0731812, 0.918, 8.2317076, 0.918, -134.4512177, 0.0353077, -0.0142672, 0.918, -157.1951294, 0.918, -340.7926941, 0.918, 57.5, 0.0353077, -0.0381018, 0.918, -2.3170731, 0.918, 1173.4146729, 0.918, 280.2438965, 0.0353077, 0.1055772, 0.918, 72.4390259, 0.918, -69.8170776, 0.918, -64.0243912, 0.0353077, 0, 0.918, 49.5121956, 0.918, -272.012207, 0.918, -166.5243988, 0.0353077, 0.0223239, 0.918, -138.5365906, 0.918, -126.4634171, 0.918, 69.1463394, 0.0353077, 0.0099031, 0.918, -526.7683105, 0.918, 1110.1219482, 0.918, 53.5975609, , , , , , , , , , , , , , , , , , , , , , 
0.0358269, -0.0256809, 0.9315, -210.36586, 0.9315, 560.487793, 0.9315, 209.9390259, 0.0358269, 0.03122, 0.9315, -136.8292694, 0.9315, 387.012207, 0.9315, -201.9512177, 0.0358269, -0.0229953, 0.9315, -159.3292694, 0.9315, -271.5243835, 0.9315, 9.5731707, 0.0358269, -0.0741894, 0.9315, -129.3902435, 0.9315, 329.4512329, 0.9315, 34.9390259, 0.0358269, 0.1109483, 0.9315, 33.1097565, 0.9315, -77.8658524, 0.9315, 99.6951218, 0.0358269, 0, 0.9315, 0, 0.9315, 0, 0.9315, 0, 0.0358269, 0.0240024, 0.9315, -94.6341476, 0.9315, -264.1463623, 0.9315, 12.6219511, 0.0358269, 0.0078889, 0.9315, -31.8902454, 0.9315, 454.8780518, 0.9315, -91.0975647, , , , , , , , , , , , , , , , , , , , , , 
0.0363462, -0.0243381, 0.945, -193.9024506, 0.945, 827.2561035, 0.945, 71.0975647, 0.0363462, 0.0317235, 0.945, -106.7073212, 0.945, 831.4634399, 0.945, -214.0243988, 0.0363462, -0.0265202, 0.945, -151.7682953, 0.945, -187.3170776, 0.945, -16.7682934, 0.0363462, -0.0552224, 0.945, -182.6829376, 0.945, -136.4634247, 0.945, 24.1463413, 0.0363462, 0.1176623, 0.945, 30.8536587, 0.945, -77.0121994, 0.945, 118.1097565, 0.0363462, 0, 0.945, 81.2804871, 0.945, -302.8048706, 0.945, -152.1341553, 0.0363462, 0.0240024, 0.945, -93.5365906, 0.945, -277.5609741, 0.945, -6.5243902, 0.0363462, 0.0057069, 0.945, 45.3048782, 0.945, -210.4268341, 0.945, -229.8170776, , , , , , , , , , , , , , , , , , , , , , 
0.0368654, -0.0238346, 0.9585, -207.012207, 0.9585, 972.2561035, 0.9585, -65.2439041, 0.0368654, 0.0320592, 0.9585, 244.5731812, 0.9585, 1051.2805176, 0.9585, -76.3414688, 0.0368654, -0.0260166, 0.9585, -187.3170776, 0.9585, -353.5365906, 0.9585, 17.5, 0.0368654, -0.0592508, 0.9585, -260.4878235, 0.9585, -210.4878082, 0.9585, -19.2073174, 0.0368654, 0.103563, 0.9585, 33.2926826, 0.9585, -87.3170776, 0.9585, 64.7560959, 0.0368654, 0, 0.9585, 85.9146347, 0.9585, -335.8536682, 0.9585, -173.4756165, 0.0368654, 0.0196384, 0.9585, -109.7561035, 0.9585, -267.8658447, 0.9585, 12.0121956, 0.0368654, 0.0023499, 0.9585, 131.0975647, 0.9585, -196.5853729, 0.9585, -293.2926941, , , , , , , , , , , , , , , , , , , , , , 
0.0373846, -0.023331, 0.972, -259.1463623, 0.972, 1234.512207, 0.972, -145, 0.0373846, 0.0347448, 0.972, 377.5, 0.972, 978.3536987, 0.972, 92.68293, 0.0373846, -0.0203098, 0.972, -183.9634247, 0.972, -436.0365906, 0.972, 29.3292694, 0.0373846, -0.0726787, 0.972, -252.3170776, 0.972, -206.4634247, 0.972, -88.3536606, 0.0373846, 0.0622721, 0.972, 67.8048782, 0.972, -94.9390259, 0.972, -8.841464, 0.0373846, 0, 0.972, 78.1097565, 0.972, -378.23172, 0.972, -206.0975647, 0.0373846, 0.0139315, 0.972, -107.0731735, 0.972, -256.5243835, 0.972, 69.2073212, 0.0373846, -0.0041962, 0.972, 172.0731812, 0.972, -85.9146347, 0.972, -240.5487823, , , , , , , , , , , , , , , , , , , , , , 
0.0379038, -0.0238346, 0.9855, -188.5975647, 0.9855, 767.987793, 0.9855, -301.1585388, 0.0379038, 0.036759, 0.9855, 313.9024353, 0.9855, 256.0365906, 0.9855, 345.2438965, 0.0379038, -0.0142672, 0.9855, -173.4756165, 0.9855, -426.4024353, 0.9855, 19.0853672, 0.0379038, -0.0263523, 0.9855, -211.8902435, 0.9855, -143.9634247, 0.9855, -131.0365906, 0.0379038, 0.0085603, 0.9855, 119.9390259, 0.9855, -318.9634094, 0.9855, -64.5731735, 0.0379038, 0, 0.9855, 76.0365906, 0.9855, -404.3292847, 0.9855, -191.8292694, 0.0379038, 0.0078889, 0.9855, -114.8780518, 0.9855, -295.3048706, 0.9855, 131.4024353, 0.0379038, -0.0102388, 0.9855, 237.3170776, 0.9855, -44.8780479, 0.9855, -189.146347, , , , , , , , , , , , , , , , , , , , , , 
0.0384231, -0.0240024, 0.999, -6.1585369, 0.999, -166.2195129, 0.999, -369.2683105, 0.0384231, 0.0387732, 0.999, 198.9634247, 0.999, -302.0731812, 0.999, 438.6585388, 0.0384231, -0.0109102, 0.999, -131.7073212, 0.999, -434.3902588, 0.999, -16.3414631, 0.0384231, 0.072343, 0.999, -204.512207, 0.999, -65.4878082, 0.999, -122.1341476, 0.0384231, -0.0276951, 0.999, 131.9512177, 0.999, -430.4268494, 0.999, -94.0853653, 0.0384231, 0, 0.999, 79.3292694, 0.999, -356.1585388, 0.999, -143.2926788, 0.0384231, 0.003357, 0.999, -117.3170776, 0.999, -283.0487976, 0.999, 169.3902435, 0.0384231, -0.0137636, 0.999, 201.2195129, 0.999, -45.6097565, 0.999, -185.2439117, , , , , , , , , , , , , , , , , , , , , , 
0.0389423, -0.0236667, 1.0125, 12.3170738, 1.0125, -507.5609741, 1.0125, -309.4512329, 0.0389423, 0.0464942, 1.0125, 10.9146347, 1.0125, -388.1097717, 1.0125, 352.5, 0.0389423, -0.0095674, 1.0125, -74.5121994, 1.0125, -284.512207, 1.0125, -74.2682953, 0.0389423, 0.1487144, 1.0125, -161.4634247, 1.0125, -123.7195129, 1.0125, -96.4024429, 0.0389423, -0.0273594, 1.0125, 152.5609741, 1.0125, -337.9878235, 1.0125, -114.8780518, 0.0389423, 0, 1.0125, 97.3170776, 1.0125, -198.9024506, 1.0125, -60.18293, 0.0389423, 0.0008392, 1.0125, -97.5, 1.0125, -260.4268494, 1.0125, 196.5853729, 0.0389423, -0.0151064, 1.0125, 139.6951294, 1.0125, 20, 1.0125, -153.1707306, , , , , , , , , , , , , , , , , , , , , , 
0.0394615, -0.0219883, 1.026, 32.2560997, 1.026, -544.0853882, 1.026, -196.5853729, 0.0394615, 0.0602579, 1.026, -129.8780518, 1.026, -329.8170776, 1.026, 205.6707306, 0.0394615, -0.0072175, 1.026, -59.2682953, 1.026, -106.7682953, 1.026, -110.8536606, 0.0394615, 0.1341115, 1.026, -132.5, 1.026, -90.1219559, 1.026, -63.4146347, 0.0394615, -0.0082246, 1.026, 172.2561035, 1.026, -184.2073212, 1.026, -128.4146423, 0.0394615, 0, 1.026, 118.5365906, 1.026, -45.5487823, 1.026, -4.0853658, 0.0394615, 0.0011749, 1.026, -83.4756088, 1.026, -244.9390259, 1.026, 197.2561035, 0.0394615, -0.0152743, 1.026, 114.146347, 1.026, 55.8536606, 1.026, -142.5609741, , , , , , , , , , , , , , , , , , , , , , 
0.0399808, -0.0209812, 1.0395, 67.9878082, 1.0395, -444.6341553, 1.0395, -103.3536606, 0.0399808, 0.0683146, 1.0395, -75.4878082, 1.0395, -305.9756165, 1.0395, 72.4390259, 0.0399808, -0.0052033, 1.0395, -76.3414688, 1.0395, -13.6585369, 1.0395, -104.4512253, 0.0399808, 0.0594186, 1.0395, -173.1097565, 1.0395, -61.7682953, 1.0395, -51.5243912, 0.0399808, 0.0072175, 1.0395, 110.5487823, 1.0395, -75.0609741, 1.0395, -142.86586, 0.0399808, 0, 1.0395, 130.3048859, 1.0395, 85, 1.0395, 14.6341467, 0.0399808, 0.0041962, 1.0395, -85, 1.0395, -221.5243988, 1.0395, 182.7439117, 0.0399808, -0.0132601, 1.0395, 121.1585388, 1.0395, 31.4024391, 1.0395, -176.9512177, , , , , , , , , , , , , , , , , , , , , , 
0.0405, -0.0209812, 1.053, 72.68293, 1.053, -390.8536682, 1.053, -74.8780518, 0.0405, 0.0716716, 1.053, -15.2439032, 1.053, -198.7195129, 1.053, 16.4634151, 0.0405, -0.0011749, 1.053, -79.8170776, 1.053, 23.9024391, 1.053, -74.2073212, 0.0405, 0.0240024, 1.053, -212.6829376, 1.053, -30.7926846, 1.053, -50.9146347, 0.0405, 0.0186313, 1.053, 50.1219521, 1.053, -94.5121994, 1.053, -145.7926788, 0.0405, 0, 1.053, 0, 1.053, 0, 1.053, 0, 0.0405, 0.0077211, 1.053, 0, 1.053, 0, 1.053, 0, 0.0405, -0.0109102, 1.053, 122.0731735, 1.053, 11.4634151, 1.053, -213.3536682, , , , , , , , , , , , , , , , , , , , , , 
0.0410192, -0.0219883, 1.0665, 82.0121994, 1.0665, -332.3780518, 1.0665, -50.2439041, 0.0410192, 0.0720073, 1.0665, -70.0609741, 1.0665, -160.6707306, 1.0665, 23.8414631, 0.0410192, 0.0057069, 1.0665, -69.0243912, 1.0665, 156.8292694, 1.0665, -43.2926826, 0.0410192, 0.0073854, 1.0665, -207.8048859, 1.0665, -3.8414636, 1.0665, -71.4024429, 0.0410192, 0.0271916, 1.0665, 35.1829262, 1.0665, -160.36586, 1.0665, -115.9756088, 0.0410192, 0, 1.0665, 73.7195129, 1.0665, 65.5487823, 1.0665, -12.1951218, 0.0410192, 0.0082246, 1.0665, -71.0975647, 1.0665, -102.1951218, 1.0665, 89.6341476, 0.0410192, -0.0105745, 1.0665, 121.0365906, 1.0665, 11.7682934, 1.0665, -195.1829376, , , , , , , , , , , , , , , , , , , , , , 
0.0415385, -0.0216526, 1.08, 117.3780518, 1.08, -254.3902435, 1.08, -47.9268303, 0.0415385, 0.0710002, 1.08, -180.2439117, 1.08, -166.2195129, 1.08, 52.0731735, 0.0415385, 0.008896, 1.08, -40.8536606, 1.08, -154.2073212, 1.08, -56.7073174, 0.0415385, -0.0198062, 1.08, -189.2682953, 1.08, 7.6219516, 1.08, -96.0365906, 0.0415385, 0.0285344, 1.08, 37.9878044, 1.08, -111.3414688, 1.08, -71.7073212, 0.0415385, 0, 1.08, 68.9634171, 1.08, -90.4268341, 1.08, -11.1585369, 0.0415385, 0.0058747, 1.08, 4.5731707, 1.08, 6.890244, 1.08, 85.18293, 0.0415385, -0.0115816, 1.08, 139.7561035, 1.08, 49.0243912, 1.08, -157.9268341, , , , , , , , , , , , , , , , , , , , , , 
0.0420577, -0.0206455, 1.0935, 173.7804871, 1.0935, -127.3780518, 1.0935, -46.8292694, 0.0420577, 0.0656291, 1.0935, -204.146347, 1.0935, -163.3536682, 1.0935, 70.6707306, 0.0420577, 0.0062104, 1.0935, -17.0121956, 1.0935, -259.9390259, 1.0935, -49.4512215, 0.0420577, -0.0354162, 1.0935, -192.3170776, 1.0935, 12.7439032, 1.0935, -125.7317123, 0.0420577, 0.0072175, 1.0935, 44.6951218, 1.0935, -21.1585369, 1.0935, -47.5, 0.0420577, 0, 1.0935, 47.9268303, 1.0935, -254.146347, 1.0935, -12.1341467, 0.0420577, 0.0008392, 1.0935, 57.8658562, 1.0935, 91.2195129, 1.0935, 88.5975647, 0.0420577, -0.0115816, 1.0935, 184.6951294, 1.0935, 84.0243912, 1.0935, -122.7439041, , , , , , , , , , , , , , , , , , , , , , 
0.0425769, -0.0209812, 1.107, 208.4756165, 1.107, -33.4146347, 1.107, -59.2682953, 0.0425769, 0.0555581, 1.107, -175.36586, 1.107, -103.4756088, 1.107, 101.3414688, 0.0425769, -0.0005035, 1.107, -8.0487804, 1.107, -218.5975647, 1.107, -46.0975609, 0.0425769, -0.0357519, 1.107, -194.5731812, 1.107, 9.2073174, 1.107, -148.6585388, 0.0425769, -0.0372625, 1.107, 29.6951218, 1.107, -1.8292683, 1.107, -43.2926826, 0.0425769, 0, 1.107, 41.8292694, 1.107, -258.6585388, 1.107, -12.3170738, 0.0425769, -0.0023499, 1.107, 0, 1.107, 0, 1.107, 0, 0.0425769, -0.0075532, 1.107, 238.6585388, 1.107, 87.3780518, 1.107, -93.7195129, , , , , , , , , , , , , , , , , , , , , , 
0.0430962, -0.0223239, 1.1205, 207.9878082, 1.1205, 17.9268303, 1.1205, -86.1585388, 0.0430962, 0.0421302, 1.1205, -153.4146423, 1.1205, -43.9024391, 1.1205, 124.5731735, 0.0430962, -0.0097353, 1.1205, -15.1219511, 1.1205, -196.5243988, 1.1205, -55.3658562, 0.0430962, -0.0344091, 1.1205, -159.146347, 1.1205, -26.280489, 1.1205, -149.8780518, 0.0430962, -0.0666361, 1.1205, 20.1829281, 1.1205, 4.6951222, 1.1205, -33.5975609, 0.0430962, 0, 1.1205, 53.2317085, 1.1205, -232.6219635, 1.1205, -9.8780489, 0.0430962, -0.005539, 1.1205, -23.2926826, 1.1205, 106.7682953, 1.1205, 39.1463432, 0.0430962, -0.0035248, 1.1205, 236.646347, 1.1205, 83.2317123, 1.1205, -62.5, , , , , , , , , , , , , , , , , , , , , , 
0.0436154, -0.0256809, 1.134, 193.8414612, 1.134, 60.4268303, 1.134, -111.2195129, 0.0436154, 0.0313878, 1.134, -145.6097565, 1.134, -6.7682929, 1.134, 148.1097565, 0.0436154, -0.0216526, 1.134, -32.3780479, 1.134, -166.2195129, 1.134, -71.4024429, 0.0436154, -0.0404517, 1.134, -103.4146347, 1.134, -53.4146347, 1.134, -138.0487823, 0.0436154, -0.0582437, 1.134, 15.4878054, 1.134, -8.0487804, 1.134, -30.6097565, 0.0436154, 0, 1.134, 75.4268341, 1.134, -112.1341476, 1.134, 5, 0.0436154, -0.0092317, 1.134, -62.5609779, 1.134, -6.8292685, 1.134, 19.6951218, 0.0436154, -0.0005035, 1.134, 170.9756165, 1.134, 80.3658524, 1.134, -38.2317085, , , , , , , , , , , , , , , , , , , , , , 
0.0441346, -0.0271916, 1.1475, 164.3292694, 1.1475, 98.7804871, 1.1475, -145.6707306, 0.0441346, 0.024506, 1.1475, -129.8170776, 1.1475, 44.8170738, 1.1475, 183.5975647, 0.0441346, -0.036759, 1.1475, -23.1707325, 1.1475, -23.8414631, 1.1475, -72.7439041, 0.0441346, -0.0498512, 1.1475, -55.5487823, 1.1475, -76.8292694, 1.1475, -116.0975647, 0.0441346, -0.0419623, 1.1475, 8.780488, 1.1475, -44.8170738, 1.1475, -39.5731735, 0.0441346, 0, 1.1475, 72.8658524, 1.1475, 7.8048782, 1.1475, 28.2926826, 0.0441346, -0.0119173, 1.1475, -59.6341476, 1.1475, -118.0487823, 1.1475, 36.4024391, 0.0441346, -0.0005035, 1.1475, 118.7804871, 1.1475, -7.5609756, 1.1475, -28.4756107, , , , , , , , , , , , , , , , , , , , , , 
0.0446538, -0.027863, 1.161, 146.9512177, 1.161, 118.6585388, 1.161, -186.1585388, 0.0446538, 0.018967, 1.161, -104.0853653, 1.161, 113.6585388, 1.161, 237.4390259, 0.0446538, -0.0486763, 1.161, -20.7317085, 1.161, 108.7195129, 1.161, -70.0609741, 0.0446538, -0.0448157, 1.161, -29.4512196, 1.161, -125.3048782, 1.161, -90.4878082, 0.0446538, -0.0369268, 1.161, 4.5121951, 1.161, -66.6463394, 1.161, -66.3414612, 0.0446538, 0, 1.161, 65.7317123, 1.161, 84.5731735, 1.161, 41.7682953, 0.0446538, -0.0115816, 1.161, -31.341465, 1.161, -119.5731735, 1.161, 75.6707306, 0.0446538, -0.0015106, 1.161, 100.6707306, 1.161, -129.5731812, 1.161, -36.0975609, , , , , , , , , , , , , , , , , , , , , , 
0.0451731, -0.0260166, 1.1745, 129.146347, 1.1745, 96.5853653, 1.1745, -207.3780518, 0.0451731, 0.01561, 1.1745, -85.2439041, 1.1745, 169.4512177, 1.1745, 279.9390259, 0.0451731, -0.0585794, 1.1745, -22.5, 1.1745, 130, 1.1745, -69.6341476, 0.0451731, -0.0263523, 1.1745, -35.1219521, 1.1745, -201.8292694, 1.1745, -83.7195129, 0.0451731, -0.030045, 1.1745, 7.5609756, 1.1745, -8.5365858, 1.1745, -105.5487823, 0.0451731, 0, 1.1745, 66.2195129, 1.1745, 116.7682953, 1.1745, 45.6097565, 0.0451731, -0.0102388, 1.1745, 33.4756088, 1.1745, -55.7926826, 1.1745, 106.7682953, 0.0451731, -0.0035248, 1.1745, 109.2073212, 1.1745, -209.2682953, 1.1745, -57.7439041, , , , , , , , , , , , , , , , , , , , , , 
0.0456923, -0.0263523, 1.188, 127.8048782, 1.188, 58.7804909, 1.188, -158.5975647, 0.0456923, 0.0112459, 1.188, -97.9878082, 1.188, 162.0731812, 1.188, 274.3292847, 0.0456923, -0.0629435, 1.188, -18.4146347, 1.188, 88.1097565, 1.188, -68.5365906, 0.0456923, -0.0130922, 1.188, -53.7195129, 1.188, -265.4878235, 1.188, -101.0365906, 0.0456923, -0.0182956, 1.188, 7.6219516, 1.188, 83.2926865, 1.188, -124.6341476, 0.0456923, 0, 1.188, 65.9146347, 1.188, 87.1951218, 1.188, 45.4268303, 0.0456923, -0.0109102, 1.188, 62.1951218, 1.188, 42.5, 1.188, 103.1707306, 0.0456923, -0.0038605, 1.188, 140.5487823, 1.188, -248.3536682, 1.188, -67.9878082, , , , , , , , , , , , , , , , , , , , , , 
0.0462115, -0.0265202, 1.2015, 137.5, 1.2015, 16.4634151, 1.2015, -127.9268341, 0.0462115, 0.0041962, 1.2015, -143.3536682, 1.2015, 126.2804871, 1.2015, 226.9512177, 0.0462115, -0.0647898, 1.2015, -3.1707318, 1.2015, 5.609756, 1.2015, -64.6341476, 0.0462115, -0.01561, 1.2015, -54.3292694, 1.2015, -284.3902588, 1.2015, -116.2804871, 0.0462115, -0.0082246, 1.2015, 15.2439032, 1.2015, 106.4634171, 1.2015, -105.0609818, 0.0462115, 0, 1.2015, 54.0243912, 1.2015, -9.6341467, 1.2015, 41.2804871, 0.0462115, -0.0149386, 1.2015, 54.3292694, 1.2015, 99.3292694, 1.2015, 89.3902435, 0.0462115, -0.0043641, 1.2015, 160.1219482, 1.2015, -261.9512329, 1.2015, -65.2439041, , , , , , , , , , , , , , , , , , , , , , 
0.0467308, -0.0256809, 1.215, 162.3780518, 1.215, -10.3658543, 1.215, -116.0975647, 0.0467308, 0.0011749, 1.215, -171.4634247, 1.215, 131.5243988, 1.215, 177.3780518, 0.0467308, -0.0676432, 1.215, 17.8658543, 1.215, -97.68293, 1.215, -60.2439041, 0.0467308, -0.0129244, 1.215, -42.9268303, 1.215, -285.8536682, 1.215, -108.4756088, 0.0467308, -0.0001678, 1.215, 9.0243902, 1.215, 50.0609779, 1.215, -75.6707306, 0.0467308, 0, 1.215, 34.6951218, 1.215, -116.3414688, 1.215, 38.2317085, 0.0467308, -0.018967, 1.215, 22.9878063, 1.215, 88.7804871, 1.215, 74.8780518, 0.0467308, -0.0045319, 1.215, 171.0975647, 1.215, -277.8658752, 1.215, -61.341465, , , , , , , , , , , , , , , , , , , , , , 
0.04725, -0.0256809, 1.2285, 225.1219635, 1.2285, 80.9756088, 1.2285, -135.7317047, 0.04725, 0.0048676, 1.2285, -205.9146423, 1.2285, 98.9634171, 1.2285, 143.1097565, 0.04725, -0.0746929, 1.2285, 29.6951218, 1.2285, -150.9146423, 1.2285, -57.3780518, 0.04725, -0.0028534, 1.2285, -39.5731735, 1.2285, -274.0853577, 1.2285, -102.68293, 0.04725, 0.0038605, 1.2285, 1.1585366, 1.2285, -20.1829281, 1.2285, -58.1707344, 0.04725, 0, 1.2285, 27.7439022, 1.2285, -148.8414612, 1.2285, 39.0243912, 0.04725, -0.0216526, 1.2285, -9.2073174, 1.2285, 12.5, 1.2285, 65.4878082, 0.04725, -0.0045319, 1.2285, 150.0609741, 1.2285, -269.8780518, 1.2285, -62.3780518, , , , , , , , , , , , , , , , , , , , , , 
0.0477692, -0.0263523, 1.242, 294.2073364, 1.242, 92.8658524, 1.242, -142.1341553, 0.0477692, 0.0119173, 1.242, -232.5, 1.242, 48.5365868, 1.242, 126.8292694, 0.0477692, -0.0820783, 1.242, 28.4756107, 1.242, -164.0853729, 1.242, -57.9878044, 0.0477692, 0.0065461, 1.242, -34.9390259, 1.242, -243.9024506, 1.242, -91.0975647, 0.0477692, 0.0031891, 1.242, 3.5365853, 1.242, -79.8780518, 1.242, -55.4268303, 0.0477692, 0, 1.242, 31.7682934, 1.242, -130.3048859, 1.242, 40.3048782, 0.0477692, -0.024506, 1.242, -24.3292694, 1.242, -89.146347, 1.242, 71.8292694, 0.0477692, -0.005539, 1.242, 130.3048859, 1.242, -251.4024506, 1.242, -61.4634171, , , , , , , , , , , , , , , , , , , , , , 
0.0482885, -0.0229953, 1.2555, 319.2073364, 1.2555, 78.9024429, 1.2555, -142.1341553, 0.0482885, 0.01561, 1.2555, -258.5975647, 1.2555, 30.3658543, 1.2555, 129.6341553, 0.0482885, -0.0800641, 1.2555, 18.5365849, 1.2555, -125.18293, 1.2555, -57.9878044, 0.0482885, 0.0159457, 1.2555, -32.8048782, 1.2555, -226.0365906, 1.2555, -76.5853653, 0.0482885, 0.002182, 1.2555, 1.5243902, 1.2555, -107.2561035, 1.2555, -60.4878044, 0.0482885, 0, 1.2555, 34.6341476, 1.2555, -110.18293, 1.2555, 39.8780479, 0.0482885, -0.0276951, 1.2555, -24.7560978, 1.2555, -130, 1.2555, 80, 0.0482885, -0.0072175, 1.2555, 108.4756088, 1.2555, -236.9512177, 1.2555, -59.8780518, , , , , , , , , , , , , , , , , , , , , , 
0.0488077, -0.0209812, 1.269, 306.5853882, 1.269, 15.3658543, 1.269, -131.5853729, 0.0488077, 0.0149386, 1.269, -266.5243835, 1.269, 48.4756126, 1.269, 136.8902435, 0.0488077, -0.0663005, 1.269, 8.1707315, 1.269, -52.0731735, 1.269, -58.1707344, 0.0488077, 0.0068818, 1.269, -29.0243912, 1.269, -219.8780518, 1.269, -58.7195129, 0.0488077, 0.0065461, 1.269, -7.9268293, 1.269, -163.6585388, 1.269, -80.9146347, 0.0488077, 0, 1.269, 40, 1.269, -69.3902435, 1.269, 38.1097565, 0.0488077, -0.0317235, 1.269, -12.1951218, 1.269, -166.7073212, 1.269, 101.0365906, 0.0488077, -0.0095674, 1.269, 84.3292694, 1.269, -203.4146423, 1.269, -62.1341476, , , , , , , , , , , , , , , , , , , , , , 
0.0493269, -0.018967, 1.2825, 265.4268494, 1.2825, -70.6097565, 1.2825, -121.2195129, 0.0493269, 0.0162814, 1.2825, -235.4268341, 1.2825, 117.9878082, 1.2825, 157.1951294, 0.0493269, -0.0468299, 1.2825, 6.890244, 1.2825, -17.0731716, 1.2825, -60.5487823, 0.0493269, -0.0099031, 1.2825, -29.0243912, 1.2825, -219.2682953, 1.2825, -40.9756088, 0.0493269, 0.0186313, 1.2825, -19.6341476, 1.2825, -215.6707306, 1.2825, -109.4512253, 0.0493269, 0, 1.2825, 44.6951218, 1.2825, -37.0731697, 1.2825, 40.4878044, 0.0493269, -0.0364233, 1.2825, 12.2560978, 1.2825, -158.2926941, 1.2825, 119.2682953, 0.0493269, -0.0105745, 1.2825, 67.4390259, 1.2825, -186.3414612, 1.2825, -71.5243912, , , , , , , , , , , , , , , , , , , , , , 
0.0498462, -0.0171206, 1.296, 236.9512177, 1.296, -100.2439041, 1.296, -110.4878082, 0.0498462, 0.0208133, 1.296, -175.9146423, 1.296, 91.5853653, 1.296, 160.9146423, 0.0498462, -0.030045, 1.296, 9.0853662, 1.296, -19.5121956, 1.296, -62.0731735, 0.0498462, -0.0135958, 1.296, -33.0487823, 1.296, -166.0365906, 1.296, -43.5365868, 0.0498462, 0.026688, 1.296, -22.0121956, 1.296, -216.2195129, 1.296, -128.7804871, 0.0498462, 0, 1.296, 46.7073174, 1.296, -29.3902454, 1.296, 44.0243912, 0.0498462, -0.0379339, 1.296, 32.1951218, 1.296, -122.4390259, 1.296, 122.1951218, 0.0498462, -0.0115816, 1.296, 69.7560959, 1.296, -220.4268341, 1.296, -69.7560959, , , , , , , , , , , , , , , , , , , , , , 
0.0503654, -0.0186313, 1.3095, 240.9146423, 1.3095, -121.4634171, 1.3095, -96.8902435, 0.0503654, 0.0226596, 1.3095, -153.5365906, 1.3095, -82.1341476, 1.3095, 141.0365906, 0.0503654, -0.0193027, 1.3095, 13.1707315, 1.3095, -51.8902435, 1.3095, -65.3048782, 0.0503654, -0.012253, 1.3095, -66.5853653, 1.3095, -241.4024506, 1.3095, -44.5121956, 0.0503654, 0.0320592, 1.3095, -14.3902445, 1.3095, -149.8780518, 1.3095, -124.0243912, 0.0503654, 0, 1.3095, 48.9634171, 1.3095, -50.3048782, 1.3095, 42.8048782, 0.0503654, -0.0357519, 1.3095, 27.8658543, 1.3095, -110.5487823, 1.3095, 110.1219559, 0.0503654, -0.012253, 1.3095, 108.3536606, 1.3095, -267.8658447, 1.3095, -86.7073212, , , , , , , , , , , , , , , , , , , , , , 
0.0508846, -0.0206455, 1.323, 237.6219635, 1.323, -233.6585388, 1.323, -71.9512177, 0.0508846, 0.0213169, 1.323, -153.2926941, 1.323, -159.6951294, 1.323, 98.5365906, 0.0508846, -0.0172885, 1.323, 8.0487804, 1.323, -92.8048782, 1.323, -66.8292694, 0.0508846, -0.0135958, 1.323, -177.4390259, 1.323, 134.6951294, 1.323, 5.9756098, 0.0508846, 0.0404517, 1.323, 1.3414634, 1.323, -88.1097565, 1.323, -97.8658524, 0.0508846, 0, 1.323, 53.7804909, 1.323, -64.8780518, 1.323, 34.9390259, 0.0508846, -0.0273594, 1.323, 8.9024391, 1.323, -115.8536606, 1.323, 94.9390259, 0.0508846, -0.0112459, 1.323, 117.3780518, 1.323, -233.5365906, 1.323, -238.23172, , , , , , , , , , , , , , , , , , , , , , 
0.0514038, -0.0209812, 1.3365, 110.8536606, 1.3365, -404.9390259, 1.3365, -35.9756088, 0.0514038, 0.0226596, 1.3365, -167.2561035, 1.3365, -313.7804871, 1.3365, 54.3902435, 0.0514038, -0.0179599, 1.3365, -5.4878049, 1.3365, -86.0365906, 1.3365, -69.4512177, 0.0514038, -0.01561, 1.3365, -167.6219482, 1.3365, -82.3170776, 1.3365, 86.5243912, 0.0514038, 0.0515297, 1.3365, 25.3658543, 1.3365, -52.0731735, 1.3365, -60.4878044, 0.0514038, 0, 1.3365, 61.2195129, 1.3365, -77.1341476, 1.3365, 26.2195129, 0.0514038, -0.0159457, 1.3365, -6.6463418, 1.3365, -140.8536682, 1.3365, 83.1707306, 0.0514038, -0.010071, 1.3365, -116.4024429, 1.3365, 376.0975647, 1.3365, -171.0975647, , , , , , , , , , , , , , , , , , , , , , 
0.0519231, -0.021149, 1.35, 35.1219521, 1.35, -381.2195129, 1.35, -22.560976, 0.0519231, 0.0238346, 1.35, -47.9268303, 1.35, -350.4878235, 1.35, 70.9756088, 0.0519231, -0.0142672, 1.35, -20.9756107, 1.35, -81.2195129, 1.35, -71.4024429, 0.0519231, -0.0146029, 1.35, 8.0487804, 1.35, 273.5975647, 1.35, 166.2195129, 0.0519231, 0.0636149, 1.35, 46.341465, 1.35, -49.8780518, 1.35, -35.4878044, 0.0519231, 0, 1.35, 66.5243912, 1.35, -21.9512196, 1.35, 19.5731716, 0.0519231, -0.008896, 1.35, -17.8048782, 1.35, -160.36586, 1.35, 71.1585388, 0.0519231, -0.010071, 1.35, -198.7195129, 1.35, 392.0731812, 1.35, -114.2682953, , , , , , , , , , , , , , , , , , , , , , 
0.0524423, -0.0229953, 1.3635, 11.341464, 1.3635, -96.3414688, 1.3635, -38.1707344, 0.0524423, 0.0246738, 1.3635, -45.3658562, 1.3635, -3.1707318, 1.3635, 97.1951218, 0.0524423, -0.0048676, 1.3635, -29.6951218, 1.3635, -29.4512196, 1.3635, -75.18293, 0.0524423, -0.0149386, 1.3635, -15.060976, 1.3635, 124.4512253, 1.3635, 72.0731735, 0.0524423, 0.0715038, 1.3635, 50.8536606, 1.3635, -54.6951218, 1.3635, -38.4146347, 0.0524423, 0, 1.3635, 74.2073212, 1.3635, -4.2073174, 1.3635, 15, 0.0524423, -0.0068818, 1.3635, -27.8048782, 1.3635, -133.7195129, 1.3635, 55.9146347, 0.0524423, -0.0109102, 1.3635, -179.2682953, 1.3635, -109.8780518, 1.3635, -45.5487823, , , , , , , , , , , , , , , , , , , , , , 
0.0529615, -0.0256809, 1.377, 41.5243912, 1.377, 148.9024353, 1.377, -96.4024429, 0.0529615, 0.0258488, 1.377, -51.7682953, 1.377, 25.9756107, 1.377, 92.8048782, 0.0529615, 0.0092317, 1.377, -51.0365868, 1.377, -18.1707325, 1.377, -74.7560959, 0.0529615, -0.0166171, 1.377, -87.2560959, 1.377, -1.4634147, 1.377, 10.2439022, 0.0529615, 0.0656291, 1.377, 21.9512196, 1.377, -4.7560978, 1.377, -63.1707344, 0.0529615, 0, 1.377, 91.8902435, 1.377, 2.3170731, 1.377, -3.6585367, 0.0529615, -0.0062104, 1.377, -31.6463413, 1.377, -103.3536606, 1.377, 43.1097565, 0.0529615, -0.012253, 1.377, 3.0487804, 1.377, 192.1951294, 1.377, -66.2195129, , , , , , , , , , , , , , , , , , , , , , 
0.0534808, -0.0287022, 1.3905, 30.3658543, 1.3905, 299.0853577, 1.3905, -106.4024429, 0.0534808, 0.0285344, 1.3905, -17.1951218, 1.3905, 37.9878044, 1.3905, 50.7317085, 0.0534808, 0.0172885, 1.3905, -77.0121994, 1.3905, -74.5121994, 1.3905, -59.8170738, 0.0534808, -0.0169528, 1.3905, -4.3292685, 1.3905, -114.6951218, 1.3905, 16.5853653, 0.0534808, 0.043473, 1.3905, -5.0609756, 1.3905, 26.280489, 1.3905, -77.8658524, 0.0534808, 0, 1.3905, 96.8292694, 1.3905, -36.2804871, 1.3905, -34.7560997, 0.0534808, -0.005539, 1.3905, -19.0853672, 1.3905, -52.6219521, 1.3905, 40.5487823, 0.0534808, -0.0130922, 1.3905, -21.280489, 1.3905, -9.9390249, 1.3905, -62.0731735, , , , , , , , , , , , , , , , , , , , , , 
0.054, -0.0298772, 1.404, -55.18293, 1.404, 319.8170776, 1.404, -28.7195129, 0.054, 0.0313878, 1.404, 45.3658562, 1.404, 90.7317123, 1.404, -13.5975609, 0.054, 0.01561, 1.404, -101.646347, 1.404, -115.1219559, 1.404, -31.9512196, 0.054, -0.0182956, 1.404, 1.1585366, 1.404, -164.8170776, 1.404, 9.7560978, 0.054, 0.0206455, 1.404, 0.4878049, 1.404, 47.3780518, 1.404, -61.0365868, 0.054, 0, 1.404, 93.6585388, 1.404, -52.3170738, 1.404, -50.8536606, 0.054, -0.0015106, 1.404, -1.2195122, 1.404, -15.3658543, 1.404, 40.1219521, 0.054, -0.0130922, 1.404, 3.8414636, 1.404, -255.6707306, 1.404, -63.1097565, , , , , , , , , , , , , , , , , , , , , , 
0.0545192, -0.030045, 1.4175, -175.3048859, 1.4175, -22.8048782, 1.4175, -43.6585388, 0.0545192, 0.0313878, 1.4175, 49.7560997, 1.4175, -6.8292685, 1.4175, 37.8658562, 0.0545192, 0.0041962, 1.4175, -104.2682953, 1.4175, -141.5243988, 1.4175, -7.7439027, 0.0545192, -0.0216526, 1.4175, -46.9512215, 1.4175, -166.9512177, 1.4175, 19.1463413, 0.0545192, 0.0075532, 1.4175, -0.3658537, 1.4175, 60.4878044, 1.4175, -45.9756126, 0.0545192, 0, 1.4175, 80.3048782, 1.4175, -95.6707306, 1.4175, -76.0975647, 0.0545192, 0.0025177, 1.4175, 9.0243902, 1.4175, 28.1707325, 1.4175, 33.5365868, 0.0545192, -0.008896, 1.4175, 12.9878054, 1.4175, -51.8902435, 1.4175, -127.6219559, , , , , , , , , , , , , , , , , , , , , , 
0.0550385, -0.0317235, 1.431, -178.8414612, 1.431, -148.9634247, 1.431, -123.1707382, 0.0550385, 0.030045, 1.431, 37.5, 1.431, -47.6219521, 1.431, 72.5, 0.0550385, -0.014435, 1.431, -95.4268341, 1.431, -209.3292694, 1.431, 12.8048782, 0.0550385, -0.0236667, 1.431, -84.2682953, 1.431, -202.8048859, 1.431, 37.2560997, 0.0550385, -0.0095674, 1.431, -2.2560976, 1.431, 82.4390259, 1.431, -19.1463413, 0.0550385, 0, 1.431, 55.8536606, 1.431, -171.7682953, 1.431, -94.0243912, 0.0550385, 0.0015106, 1.431, 15.1829271, 1.431, 74.5731735, 1.431, 22.3780499, 0.0550385, -0.0048676, 1.431, 9.6341467, 1.431, -88.5365906, 1.431, -157.3170776, , , , , , , , , , , , , , , , , , , , , , 
0.0555577, -0.0337377, 1.4445, -96.8902435, 1.4445, 2.1341465, 1.4445, -144.8170776, 0.0555577, 0.0288701, 1.4445, 77.5609741, 1.4445, -229.9390259, 1.4445, 88.5365906, 0.0555577, -0.033402, 1.4445, -88.9024429, 1.4445, -308.5365906, 1.4445, 56.4024391, 0.0555577, -0.0229953, 1.4445, -99.5731735, 1.4445, -165.1829376, 1.4445, 30.9146347, 0.0555577, -0.0323949, 1.4445, -24.6341476, 1.4445, 106.2804871, 1.4445, -12.8048782, 0.0555577, 0, 1.4445, 23.4756107, 1.4445, -234.7561035, 1.4445, -110.9146347, 0.0555577, -0.0041962, 1.4445, 17.5, 1.4445, 95.6097565, 1.4445, 15.3658543, 0.0555577, -0.005539, 1.4445, 23.780489, 1.4445, -155.1829376, 1.4445, -116.8902435, , , , , , , , , , , , , , , , , , , , , , 
0.0560769, -0.0350805, 1.458, 28.1097565, 1.458, 124.3292694, 1.458, -105, 0.0560769, 0.026688, 1.458, 67.0121994, 1.458, -150.0609741, 1.458, 47.1951218, 0.0560769, -0.0493477, 1.458, -48.7195129, 1.458, -321.9512329, 1.458, 92.3780518, 0.0560769, -0.0203098, 1.458, -68.6585388, 1.458, -10.3658543, 1.458, 16.4024391, 0.0560769, -0.0424659, 1.458, -67.0731735, 1.458, 60.8536606, 1.458, -9.1463413, 0.0560769, 0, 1.458, -27.5, 1.458, -287.4390259, 1.458, -111.8292694, 0.0560769, -0.0102388, 1.458, 21.1585369, 1.458, 108.9024429, 1.458, 12.6829271, 0.0560769, -0.0072175, 1.458, -10.6097565, 1.458, 37.8658562, 1.458, -44.2073174, , , , , , , , , , , , , , , , , , , , , , 
0.0565962, -0.0339055, 1.4715, 68.1097565, 1.4715, 206.4634247, 1.4715, -74.2073212, 0.0565962, 0.023331, 1.4715, 7.3170733, 1.4715, 132.8048859, 1.4715, 38.2317085, 0.0565962, -0.0595865, 1.4715, 15.3048782, 1.4715, -308.23172, 1.4715, 91.8292694, 0.0565962, -0.0129244, 1.4715, -8.4146347, 1.4715, 126.0365906, 1.4715, 46.7682953, 0.0565962, -0.0417945, 1.4715, -89.8780518, 1.4715, -52.3780518, 1.4715, -0.7926829, 0.0565962, 0, 1.4715, -76.0365906, 1.4715, -324.8780518, 1.4715, -76.646347, 0.0565962, -0.018967, 1.4715, 18.3536587, 1.4715, 111.2195129, 1.4715, 7.8658538, 0.0565962, -0.0043641, 1.4715, -64.6951218, 1.4715, 153.0487823, 1.4715, -4.390244, , , , , , , , , , , , , , , , , , , , , , 
0.0571154, -0.033402, 1.485, 121.7073212, 1.485, 175.4878082, 1.485, -45.6097565, 0.0571154, 0.0219883, 1.485, -32.5609779, 1.485, 243.5365906, 1.485, 56.7682953, 0.0571154, -0.061265, 1.485, 60.3658562, 1.485, -309.3292847, 1.485, 78.0487823, 0.0571154, -0.0142672, 1.485, 32.5609779, 1.485, 122.7439041, 1.485, 70.9756088, 0.0571154, -0.0471656, 1.485, -79.2682953, 1.485, -140.9756165, 1.485, 10, 0.0571154, 0, 1.485, -99.8780518, 1.485, -331.7683105, 1.485, -37.3170738, 0.0571154, -0.0310521, 1.485, 8.6585369, 1.485, 93.9634171, 1.485, 1.8902439, 0.0571154, -0.0005035, 1.485, -99.146347, 1.485, 139.2073212, 1.485, 4.0243902, , , , , , , , , , , , , , , , , , , , , , 
0.0576346, -0.0344091, 1.4985, 137.0121918, 1.4985, 71.7682953, 1.4985, -30.7926846, 0.0576346, 0.0213169, 1.4985, -79.4512177, 1.4985, 183.5975647, 1.4985, 60.5487823, 0.0576346, -0.0577401, 1.4985, 69.3902435, 1.4985, -296.8902588, 1.4985, 70.2439041, 0.0576346, -0.026688, 1.4985, 55.4878044, 1.4985, 66.8292694, 1.4985, 87.2560959, 0.0576346, -0.0542153, 1.4985, -35.2439041, 1.4985, -136.5243988, 1.4985, 24.3292694, 0.0576346, 0, 1.4985, -98.9024429, 1.4985, -272.012207, 1.4985, -2.8658538, 0.0576346, -0.0417945, 1.4985, -12.8048782, 1.4985, 16.9512196, 1.4985, -8.719512, 0.0576346, 0.0008392, 1.4985, -111.8292694, 1.4985, 105.7317123, 1.4985, 3.9634147, , , , , , , , , , , , , , , , , , , , , , 
0.0581538, -0.0369268, 1.512, 105.3658524, 1.512, 43.4146347, 1.512, -23.3536587, 0.0581538, 0.0226596, 1.512, -53.4756126, 1.512, 148.4756165, 1.512, 38.5365868, 0.0581538, -0.0552224, 1.512, 76.1585388, 1.512, -236.7073212, 1.512, 58.7195129, 0.0581538, -0.0364233, 1.512, 43.841465, 1.512, 25.3048782, 1.512, 92.8658524, 0.0581538, -0.0501869, 1.512, 6.1585369, 1.512, -116.8292694, 1.512, 30, 0.0581538, 0, 1.512, -94.8780518, 1.512, -198.4146423, 1.512, 24.5121956, 0.0581538, -0.0438087, 1.512, -36.0975609, 1.512, -93.8414688, 1.512, -10.060976, 0.0581538, -0.0015106, 1.512, -121.5853653, 1.512, 22.9268303, 1.512, -6.5243902, , , , , , , , , , , , , , , , , , , , , , 
0.0586731, -0.0384375, 1.5255, 62.1341476, 1.5255, -1.8902439, 1.5255, -9.4512196, 0.0586731, 0.0226596, 1.5255, -36.9512215, 1.5255, 88.8414688, 1.5255, 48.1097565, 0.0586731, -0.0560616, 1.5255, 91.1585388, 1.5255, -151.5853729, 1.5255, 54.6341476, 0.0586731, -0.0305486, 1.5255, 2.7439024, 1.5255, -23.9024391, 1.5255, 70.3658524, 0.0586731, -0.043473, 1.5255, 26.1585369, 1.5255, -186.3414612, 1.5255, 22.6219521, 0.0586731, 0, 1.5255, -105.7926865, 1.5255, -142.9268341, 1.5255, 47.0731735, 0.0586731, -0.0397803, 1.5255, -50.7317085, 1.5255, -207.0731812, 1.5255, -4.3292685, 0.0586731, -0.0031891, 1.5255, -76.9512177, 1.5255, -40.0609779, 1.5255, -24.2682934, , , , , , , , , , , , , , , , , , , , , , 
0.0591923, -0.036759, 1.539, 64.3902435, 1.539, -33.9024391, 1.539, -21.9512196, 0.0591923, 0.0219883, 1.539, -44.5121956, 1.539, -38.4146347, 1.539, 71.8902435, 0.0591923, -0.0569009, 1.539, 116.1585388, 1.539, -116.646347, 1.539, 54.8170738, 0.0591923, -0.0092317, 1.539, 1.8902439, 1.539, -65.6097565, 1.539, 60.7926826, 0.0591923, -0.0409552, 1.539, 30.6097565, 1.539, -263.1707458, 1.539, 12.8048782, 0.0591923, 0, 1.539, -120.9756088, 1.539, -130.6707306, 1.539, 66.4634171, 0.0591923, -0.0354162, 1.539, -62.0121956, 1.539, -305.3048706, 1.539, 6.4634147, 0.0591923, -0.0065461, 1.539, -45.3658562, 1.539, -87.1341476, 1.539, -32.8048782, , , , , , , , , , , , , , , , , , , , , , 
0.0597115, -0.0344091, 1.5525, 74.7560959, 1.5525, -56.7073174, 1.5525, -57.8658562, 0.0597115, 0.0273594, 1.5525, -36.341465, 1.5525, -102.6219559, 1.5525, 85.7317123, 0.0597115, -0.051194, 1.5525, 136.5243988, 1.5525, -121.8902435, 1.5525, 53.4146347, 0.0597115, 0.0219883, 1.5525, 35.8536606, 1.5525, -80.5487823, 1.5525, 72.4390259, 0.0597115, -0.0464942, 1.5525, 26.0975609, 1.5525, -285.6097717, 1.5525, 4.8780489, 0.0597115, 0, 1.5525, -124.7561035, 1.5525, -133.9634247, 1.5525, 74.9390259, 0.0597115, -0.0354162, 1.5525, 0, 1.5525, 0, 1.5525, 0, 0.0597115, -0.0095674, 1.5525, -70.9146347, 1.5525, -76.5243912, 1.5525, -26.8292694, , , , , , , , , , , , , , , , , , , , , , 
0.0602308, -0.03122, 1.566, 65.5487823, 1.566, -66.6463394, 1.566, -84.6341476, 0.0602308, 0.036759, 1.566, -27.0121956, 1.566, -113.5365906, 1.566, 83.2926865, 0.0602308, -0.0364233, 1.566, 144.2073212, 1.566, -144.3292694, 1.566, 47.0731735, 0.0602308, 0.0522011, 1.566, 52.9878044, 1.566, -67.1341476, 1.566, 78.1097565, 0.0602308, -0.0710002, 1.566, 20, 1.566, -263.3536682, 1.566, -2.0121951, 0.0602308, 0, 1.566, -126.2195129, 1.566, -151.9512177, 1.566, 86.9512253, 0.0602308, -0.0352483, 1.566, 0, 1.566, 0, 1.566, 0, 0.0602308, -0.0109102, 1.566, -93.2317123, 1.566, -61.0975609, 1.566, -15.4878054, , , , , , , , , , , , , , , , , , , , , , 
0.06075, -0.0273594, 1.5795, 37.5, 1.5795, -66.8292694, 1.5795, -88.8414688, 0.06075, 0.0414588, 1.5795, -33.3536606, 1.5795, -114.6341476, 1.5795, 71.6463394, 0.06075, -0.0146029, 1.5795, 148.9634247, 1.5795, -171.1585388, 1.5795, 36.7682953, 0.06075, 0.0495155, 1.5795, 48.7804871, 1.5795, -48.2317085, 1.5795, 76.2195129, 0.06075, -0.0978561, 1.5795, 18.1707325, 1.5795, -241.7073212, 1.5795, -4.3292685, 0.06075, 0, 1.5795, -119.6341476, 1.5795, -175.6707306, 1.5795, 95.8536606, 0.06075, -0.0293736, 1.5795, -66.0975647, 1.5795, -306.7073364, 1.5795, 35.9146347, 0.06075, -0.0077211, 1.5795, -88.7804871, 1.5795, -37.8658562, 1.5795, -13.2926836, , , , , , , , , , , , , , , , , , , , , , 
0.0612692, -0.0236667, 1.593, 10.060976, 1.593, -65.4268341, 1.593, -74.2682953, 0.0612692, 0.0441444, 1.593, -52.2560997, 1.593, -118.3536606, 1.593, 57.0121956, 0.0612692, 0.0031891, 1.593, 155.9756165, 1.593, -171.8292694, 1.593, 23.1097565, 0.0612692, 0.0085603, 1.593, 29.0243912, 1.593, -0.4268293, 1.593, 67.7439041, 0.0612692, -0.0941634, 1.593, 16.9512196, 1.593, -195, 1.593, -7.0731707, 0.0612692, 0, 1.593, -109.2073212, 1.593, -170.2439117, 1.593, 108.4756088, 0.0612692, -0.0172885, 1.593, -59.5121956, 1.593, -236.4634247, 1.593, 38.3536606, 0.0612692, -0.0015106, 1.593, -72.5, 1.593, 10.7317076, 1.593, -17.3170738, , , , , , , , , , , , , , , , , , , , , , 
0.0617885, -0.0208133, 1.6065, -3.0487804, 1.6065, -64.8170776, 1.6065, -54.3902435, 0.0617885, 0.0464942, 1.6065, -57.2560997, 1.6065, -121.2804871, 1.6065, 52.1951218, 0.0617885, 0.0063783, 1.6065, 158.9634247, 1.6065, -139.6951294, 1.6065, 9.6341467, 0.0617885, -0.0471656, 1.6065, 13.1097565, 1.6065, 29.5731716, 1.6065, 57.9878044, 0.0617885, -0.0679789, 1.6065, 20.3048782, 1.6065, -170.6097565, 1.6065, -7.0121951, 0.0617885, 0, 1.6065, -98.9024429, 1.6065, -134.6341553, 1.6065, 122.8048782, 0.0617885, -0.0060426, 1.6065, -57.0731735, 1.6065, -166.4024353, 1.6065, 39.1463432, 0.0617885, 0.0003357, 1.6065, -58.4756126, 1.6065, 38.3536606, 1.6065, -19.2682934, , , , , , , , , , , , , , , , , , , , , , 
0.0623077, -0.0203098, 1.62, -1.9512196, 1.62, -75.5487823, 1.62, -43.7195129, 0.0623077, 0.047837, 1.62, -55.6097565, 1.62, -115.8536606, 1.62, 52.0731735, 0.0623077, 0.0001678, 1.62, 155.7317047, 1.62, -93.6585388, 1.62, 4.2682929, 0.0623077, -0.0981918, 1.62, 10.060976, 1.62, 21.0975609, 1.62, 50.9756126, 0.0623077, -0.0448157, 1.62, 26.6463413, 1.62, -160.3048859, 1.62, -5.609756, 0.0623077, 0, 1.62, -91.4024429, 1.62, -83.6585388, 1.62, 130.7926788, 0.0623077, 0.0018463, 1.62, -60.4268303, 1.62, -107.8658524, 1.62, 39.8780479, 0.0623077, -0.0015106, 1.62, -54.0243912, 1.62, 26.0975609, 1.62, -21.5853672, , , , , , , , , , , , , , , , , , , , , , 
0.0628269, -0.0186313, 1.6335, 0.0609756, 1.6335, -102.5, 1.6335, -48.0487823, 0.0628269, 0.0475013, 1.6335, -48.5975609, 1.6335, -112.2561035, 1.6335, 60.7926826, 0.0628269, -0.0062104, 1.6335, 149.5121918, 1.6335, -49.2682953, 1.6335, 6.3414636, 0.0628269, -0.1225299, 1.6335, 12.4390249, 1.6335, -9.2073174, 1.6335, 46.5853653, 0.0628269, -0.0270237, 1.6335, 37.3170738, 1.6335, -142.1341553, 1.6335, -5.9756098, 0.0628269, 0, 1.6335, -90.1219559, 1.6335, -35.9756088, 1.6335, 131.1585388, 0.0628269, 0.0052033, 1.6335, -67.5609741, 1.6335, -67.7439041, 1.6335, 40.8536606, 0.0628269, -0.0035248, 1.6335, -50, 1.6335, -14.4512196, 1.6335, -27.9268303, , , , , , , , , , , , , , , , , , , , , , 
0.0633462, -0.0166171, 1.647, -6.890244, 1.647, -130.1219482, 1.647, -60.4268303, 0.0633462, 0.0454871, 1.647, -35.4268303, 1.647, -127.5609818, 1.647, 70.0609741, 0.0633462, -0.0078889, 1.647, 144.4512177, 1.647, -19.939024, 1.647, 10.6097565, 0.0633462, -0.1196765, 1.647, 10.4268293, 1.647, -48.2317085, 1.647, 41.5853653, 0.0633462, -0.0077211, 1.647, 46.4634171, 1.647, -115, 1.647, -10.1219511, 0.0633462, 0, 1.647, -92.5609741, 1.647, -6.7073174, 1.647, 127.8048782, 0.0633462, 0.0048676, 1.647, -68.8414688, 1.647, -40.8536606, 1.647, 40.2439041, 0.0633462, -0.0052033, 1.647, -44.8780479, 1.647, -35.6707344, 1.647, -31.9512196, , , , , , , , , , , , , , , , , , , , , , 
0.0638654, -0.018967, 1.6605, -8.5365858, 1.6605, -140.36586, 1.6605, -64.9390259, 0.0638654, 0.0438087, 1.6605, -17.439024, 1.6605, -147.1951294, 1.6605, 67.9268341, 0.0638654, -0.0062104, 1.6605, 140.4268341, 1.6605, -0.5487805, 1.6605, 15.4878054, 0.0638654, -0.0820783, 1.6605, 4.8170733, 1.6605, -74.6341476, 1.6605, 34.9390259, 0.0638654, 0.0099031, 1.6605, 53.2926826, 1.6605, -76.4024429, 1.6605, -18.3536587, 0.0638654, 0, 1.6605, -95.0609741, 1.6605, 3.7195122, 1.6605, 124.5121994, 0.0638654, 0.0025177, 1.6605, -62.3780518, 1.6605, -20.5487804, 1.6605, 38.2926826, 0.0638654, -0.0065461, 1.6605, -31.9512196, 1.6605, -68.8414688, 1.6605, -38.4146347, , , , , , , , , , , , , , , , , , , , , , 
0.0643846, -0.0213169, 1.674, -2.0121951, 1.674, -150.1829376, 1.674, -66.2195129, 0.0643846, 0.0407874, 1.674, -7.2560978, 1.674, -150.4268341, 1.674, 54.3902435, 0.0643846, -0.0062104, 1.674, 138.4146423, 1.674, -1.5853659, 1.674, 17.3780499, 0.0643846, -0.0263523, 1.674, 0.4268293, 1.674, -81.8902435, 1.674, 30, 0.0643846, 0.0186313, 1.674, 57.8048782, 1.674, -40.5487823, 1.674, -30.9756107, 0.0643846, 0, 1.674, -98.4146347, 1.674, -3.5365853, 1.674, 121.3414688, 0.0643846, 0.0018463, 1.674, -53.3536606, 1.674, 0.7317073, 1.674, 38.2317085, 0.0643846, -0.0070497, 1.674, -22.1951218, 1.674, -79.2073212, 1.674, -42.5, , , , , , , , , , , , , , , , , , , , , , 
0.0649038, -0.0216526, 1.6875, 11.0365858, 1.6875, -132.86586, 1.6875, -58.7195129, 0.0649038, 0.0317235, 1.6875, -3.8414636, 1.6875, -142.5, 1.6875, 38.9634171, 0.0649038, -0.0124208, 1.6875, 140.2439117, 1.6875, -10.4268293, 1.6875, 16.6463413, 0.0649038, 0.0439765, 1.6875, -1.6463414, 1.6875, -79.9390259, 1.6875, 26.4634151, 0.0649038, 0.0219883, 1.6875, 65.3658524, 1.6875, -17.439024, 1.6875, -45.5487823, 0.0649038, 0, 1.6875, -101.7073212, 1.6875, -33.9024391, 1.6875, 120.3048782, 0.0649038, 0.0052033, 1.6875, -45.5487823, 1.6875, 25.2439022, 1.6875, 41.4634171, 0.0649038, -0.0068818, 1.6875, -19.0853672, 1.6875, -73.7195129, 1.6875, -43.841465, , , , , , , , , , , , , , , , , , , , , , 
0.0654231, -0.023331, 1.701, 24.0853672, 1.701, -95.9146347, 1.701, -48.3536606, 0.0654231, 0.0149386, 1.701, -4.8780489, 1.701, -116.7682953, 1.701, 28.6585369, 0.0654231, -0.0209812, 1.701, 148.4146423, 1.701, -48.5975609, 1.701, 16.3414631, 0.0654231, 0.1005417, 1.701, -1.4634147, 1.701, -70.18293, 1.701, 22.3170738, 0.0654231, 0.0236667, 1.701, 71.0975647, 1.701, 10, 1.701, -56.8292694, 0.0654231, 0, 1.701, -104.0243912, 1.701, -45.7926826, 1.701, 120, 0.0654231, 0.0085603, 1.701, -43.0487823, 1.701, 39.3292694, 1.701, 43.5365868, 0.0654231, -0.0075532, 1.701, -17.439024, 1.701, -62.8048782, 1.701, -41.5853653, , , , , , , , , , , , , , , , , , , , , , 
0.0659423, -0.0253452, 1.7145, 33.7195129, 1.7145, -69.0853653, 1.7145, -37.7439041, 0.0659423, -0.0045319, 1.7145, -5.3048782, 1.7145, -93.6585388, 1.7145, 22.1341476, 0.0659423, -0.018967, 1.7145, 152.86586, 1.7145, -78.3536606, 1.7145, 22.7439022, 0.0659423, 0.1075914, 1.7145, -0.6097561, 1.7145, -62.8658562, 1.7145, 18.0487804, 0.0659423, 0.0206455, 1.7145, 72.5, 1.7145, 40.6707344, 1.7145, -56.341465, 0.0659423, 0, 1.7145, -110.4268341, 1.7145, -67.9268341, 1.7145, 115.4878082, 0.0659423, 0.0099031, 1.7145, -41.8292694, 1.7145, 70.4878082, 1.7145, 46.341465, 0.0659423, -0.0085603, 1.7145, -14.9390249, 1.7145, -54.3292694, 1.7145, -38.7804871, , , , , , , , , , , , , , , , , , , , , , 
0.0664615, -0.0260166, 1.728, 31.5853672, 1.728, -58.9024391, 1.728, -29.0243912, 0.0664615, -0.0193027, 1.728, -0.8536586, 1.728, -70.9756088, 1.728, 17.8048782, 0.0664615, -0.0142672, 1.728, 155.7317047, 1.728, -90.3048782, 1.728, 33.4146347, 0.0664615, 0.0676432, 1.728, -0.6097561, 1.728, -65.9146347, 1.728, 14.5731707, 0.0664615, 0.0129244, 1.728, 73.1707306, 1.728, 53.6585388, 1.728, -50.8536606, 0.0664615, 0, 1.728, -119.7561035, 1.728, -92.8658524, 1.728, 107.1341476, 0.0664615, 0.008896, 1.728, -48.4756126, 1.728, 93.9024429, 1.728, 44.4512215, 0.0664615, -0.0095674, 1.728, -11.341464, 1.728, -55.3658562, 1.728, -38.3536606, , , , , , , , , , , , , , , , , , , , , , 
0.0669808, -0.0275273, 1.7415, 16.280489, 1.7415, -52.4390259, 1.7415, -25.3658543, 0.0669808, -0.0226596, 1.7415, 3.4756098, 1.7415, -53.9024391, 1.7415, 15.9146347, 0.0669808, -0.0162814, 1.7415, 156.646347, 1.7415, -115.6707306, 1.7415, 41.6463432, 0.0669808, 0.0270237, 1.7415, -2.5609756, 1.7415, -71.8902435, 1.7415, 11.280488, 0.0669808, 0.0048676, 1.7415, 75.6707306, 1.7415, 72.1341476, 1.7415, -32.6829262, 0.0669808, 0, 1.7415, -128.1097565, 1.7415, -118.7804871, 1.7415, 99.6951218, 0.0669808, 0.0045319, 1.7415, -63.0487823, 1.7415, 89.5121994, 1.7415, 36.5243912, 0.0669808, -0.0082246, 1.7415, -6.4024391, 1.7415, -63.9024391, 1.7415, -39.2682953, , , , , , , , , , , , , , , , , , , , , , 
0.0675, -0.0310521, 1.755, 0.9756098, 1.755, -42.1341476, 1.755, -28.4756107, 0.0675, -0.0129244, 1.755, 0.9146342, 1.755, -55.5487823, 1.755, 15.7317076, 0.0675, -0.0213169, 1.755, 153.1097565, 1.755, -142.7439117, 1.755, 46.8292694, 0.0675, 0.0186313, 1.755, -3.5975611, 1.755, -74.9390259, 1.755, 8.9024391, 0.0675, -0.012253, 1.755, 81.0975647, 1.755, 69.9390259, 1.755, -9.6951218, 0.0675, 0, 1.755, -131.0975647, 1.755, -137.6219482, 1.755, 92.4390259, 0.0675, -0.0031891, 1.755, -80.7926865, 1.755, 51.8902435, 1.755, 25.3658543, 0.0675, -0.0082246, 1.755, -2.804878, 1.755, -66.1585388, 1.755, -38.7195129, , , , , , , , , , , , , , , , , , , , , , 
0.0680192, -0.0339055, 1.7685, -8.9634151, 1.7685, -34.7560997, 1.7685, -32.6829262, 0.0680192, 0.0035248, 1.7685, 0, 1.7685, 0, 1.7685, 0, 0.0680192, -0.0246738, 1.7685, 148.3536682, 1.7685, -155.1829376, 1.7685, 50.9756126, 0.0680192, 0.0176242, 1.7685, -3.1097562, 1.7685, -72.7439041, 1.7685, 8.2926826, 0.0680192, -0.0391089, 1.7685, 87.68293, 1.7685, 36.2195129, 1.7685, 11.1585369, 0.0680192, 0, 1.7685, -130.3048859, 1.7685, -146.8902435, 1.7685, 83.9024429, 0.0680192, -0.0115816, 1.7685, 0, 1.7685, 0, 1.7685, 0, 0.0680192, -0.0092317, 1.7685, -3.4756098, 1.7685, -61.8292694, 1.7685, -36.341465, , , , , , , , , , , , , , , , , , , , , , 
0.0685385, -0.0337377, 1.782, -15, 1.782, -42.5, 1.782, -34.0853653, 0.0685385, 0.0140993, 1.782, -9.6951218, 1.782, -71.1585388, 1.782, 18.4756107, 0.0685385, -0.0209812, 1.782, 143.3536682, 1.782, -155.8536682, 1.782, 53.9024391, 0.0685385, 0.0038605, 1.782, -1.0365853, 1.782, -64.1463394, 1.782, 8.1097565, 0.0685385, -0.0632792, 1.782, 94.4512253, 1.782, -23.6585369, 1.782, 23.5365868, 0.0685385, 0, 1.782, -129.0243988, 1.782, -148.3536682, 1.782, 76.0365906, 0.0685385, -0.0186313, 1.782, -108.9634171, 1.782, -52.7439041, 1.782, 11.7073174, 0.0685385, -0.0082246, 1.782, -6.4024391, 1.782, -52.6829262, 1.782, -32.1951218, , , , , , , , , , , , , , , , , , , , , , 
0.0690577, -0.0344091, 1.7955, -18.780489, 1.7955, -62.1951218, 1.7955, -33.9634171, 0.0690577, 0.0130922, 1.7955, -11.219512, 1.7955, -84.3292694, 1.7955, 21.6463413, 0.0690577, -0.0149386, 1.7955, 137.0121918, 1.7955, -153.8414612, 1.7955, 54.8170738, 0.0690577, -0.0045319, 1.7955, 1.3414634, 1.7955, -50.1219521, 1.7955, 8.4146347, 0.0690577, -0.0699931, 1.7955, 100.7926865, 1.7955, -89.9390259, 1.7955, 26.5853672, 0.0690577, 0, 1.7955, -125.18293, 1.7955, -146.1585388, 1.7955, 68.9634171, 0.0690577, -0.0250095, 1.7955, -120.2439041, 1.7955, -103.1097565, 1.7955, 16.5853653, 0.0690577, -0.0041962, 1.7955, -8.9634151, 1.7955, -39.2682953, 1.7955, -27.4390259, , , , , , , , , , , , , , , , , , , , , , 
0.0695769, -0.0339055, 1.809, -17.3170738, 1.809, -83.9024429, 1.809, -34.8780479, 0.0695769, 0.0075532, 1.809, -7.7439027, 1.809, -94.4512253, 1.809, 24.8170738, 0.0695769, -0.0124208, 1.809, 126.8902435, 1.809, -152.1951294, 1.809, 55.8536606, 0.0695769, 0.0176242, 1.809, 4.390244, 1.809, -41.7073174, 1.809, 10.060976, 0.0695769, -0.0636149, 1.809, 105.6097565, 1.809, -158.1707306, 1.809, 22.8048782, 0.0695769, 0, 1.809, -119.5121994, 1.809, -141.0975647, 1.809, 60.4878044, 0.0695769, -0.0313878, 1.809, -127.3780518, 1.809, -155.1219482, 1.809, 28.5365868, 0.0695769, 0.0031891, 1.809, -10.4268293, 1.809, -33.6585388, 1.809, -25.8536587, , , , , , , , , , , , , , , , , , , , , , 
0.0700962, -0.0317235, 1.8225, -15.4268293, 1.8225, -96.5243912, 1.8225, -35.3048782, 0.0700962, -0.0018463, 1.8225, -6.1585369, 1.8225, -111.4634171, 1.8225, 26.3414631, 0.0700962, -0.0077211, 1.8225, 113.7195129, 1.8225, -145.5487823, 1.8225, 58.5365868, 0.0700962, 0.0533761, 1.8225, 7.0731707, 1.8225, -42.6829262, 1.8225, 12.0121956, 0.0700962, -0.0558938, 1.8225, 103.1097565, 1.8225, -220.7926941, 1.8225, 17.6219521, 0.0700962, 0, 1.8225, -113.4756088, 1.8225, -132.6219482, 1.8225, 49.8170738, 0.0700962, -0.0327306, 1.8225, -128.1097565, 1.8225, -209.146347, 1.8225, 41.7073174, 0.0700962, 0.0109102, 1.8225, -13.1097565, 1.8225, -32.9878044, 1.8225, -24.4512196, , , , , , , , , , , , , , , , , , , , , , 
0.0706154, -0.0290379, 1.836, -12.3170738, 1.836, -124.4512253, 1.836, -34.4512215, 0.0706154, -0.0125887, 1.836, -7.9878049, 1.836, -139.6951294, 1.836, 26.280489, 0.0706154, 0.0015106, 1.836, 100.7926865, 1.836, -140.36586, 1.836, 62.4390259, 0.0706154, 0.0666361, 1.836, 10, 1.836, -48.841465, 1.836, 13.6585369, 0.0706154, -0.0391089, 1.836, 100.7926865, 1.836, -266.3414612, 1.836, 14.2073174, 0.0706154, 0, 1.836, -108.3536606, 1.836, -120.1219559, 1.836, 38.841465, 0.0706154, -0.0290379, 1.836, -128.1097565, 1.836, -262.0731812, 1.836, 51.4634171, 0.0706154, 0.0129244, 1.836, -14.2073174, 1.836, -42.3780479, 1.836, -23.6585369, , , , , , , , , , , , , , , , , , , , , , 
0.0711346, -0.0263523, 1.8495, -12.8048782, 1.8495, -150.9756165, 1.8495, -30.9146347, 0.0711346, -0.0172885, 1.8495, -7.6829271, 1.8495, -160.36586, 1.8495, 24.1463413, 0.0711346, 0.0078889, 1.8495, 88.2317123, 1.8495, -134.5731812, 1.8495, 66.5853653, 0.0711346, 0.0535439, 1.8495, 13.6585369, 1.8495, -57.0121956, 1.8495, 15.1829271, 0.0711346, -0.0109102, 1.8495, 102.5, 1.8495, -294.5731812, 1.8495, 12.1341467, 0.0711346, 0, 1.8495, -104.6341476, 1.8495, -111.4024429, 1.8495, 27.0731716, 0.0711346, -0.0229953, 1.8495, -133.3536682, 1.8495, -310.73172, 1.8495, 56.7073174, 0.0711346, 0.0109102, 1.8495, -15.5487804, 1.8495, -51.9512215, 1.8495, -22.1951218, , , , , , , , , , , , , , , , , , , , , , 
0.0716538, -0.0229953, 1.863, -14.0243902, 1.863, -172.3780518, 1.863, -26.7073174, 0.0716538, -0.0053712, 1.863, -6.7682929, 1.863, -179.2073212, 1.863, 20.4268303, 0.0716538, 0.0135958, 1.863, 75.6097565, 1.863, -131.9512177, 1.863, 72.8048782, 0.0716538, 0.0307164, 1.863, 16.7682934, 1.863, -63.2317085, 1.863, 16.8292694, 0.0716538, 0.0162814, 1.863, 103.5975647, 1.863, -313.23172, 1.863, 10.060976, 0.0716538, 0, 1.863, -103.1097565, 1.863, -107.2561035, 1.863, 20.5487804, 0.0716538, -0.0149386, 1.863, -141.2195129, 1.863, -347.012207, 1.863, 60.1219521, 0.0716538, 0.0075532, 1.863, -17.560976, 1.863, -59.2073174, 1.863, -21.0975609, , , , , , , , , , , , , , , , , , , , , , 
0.0721731, -0.0182956, 1.8765, -14.0243902, 1.8765, -181.3414612, 1.8765, -23.3536587, 0.0721731, 0.0152743, 1.8765, -3.6585367, 1.8765, -189.8780518, 1.8765, 18.3536587, 0.0721731, 0.0213169, 1.8765, 62.1951218, 1.8765, -135.7926788, 1.8765, 82.5, 0.0721731, 0.0077211, 1.8765, 18.9024391, 1.8765, -67.3170776, 1.8765, 17.7439022, 0.0721731, 0.0397803, 1.8765, 102.9878082, 1.8765, -326.7073364, 1.8765, 7.1951222, 0.0721731, 0, 1.8765, -102.3170776, 1.8765, -105.7926865, 1.8765, 4.8780489, 0.0721731, -0.0060426, 1.8765, -145, 1.8765, -361.7073364, 1.8765, 64.8780518, 0.0721731, 0.0048676, 1.8765, -19.2682934, 1.8765, -63.0487823, 1.8765, -19.7560978, , , , , , , , , , , , , , , , , , , , , , 
0.0726923, -0.0152743, 1.89, -13.4756098, 1.89, -177.7439117, 1.89, -22.0121956, 0.0726923, 0.0313878, 1.89, -0.6707317, 1.89, -185.1829376, 1.89, 19.0243912, 0.0726923, 0.0219883, 1.89, 55.6707344, 1.89, -139.5121918, 1.89, 88.2926865, 0.0726923, -0.0129244, 1.89, 20.9146347, 1.89, -66.4634171, 1.89, 17.9878044, 0.0726923, 0.0636149, 1.89, 102.4390259, 1.89, -330.73172, 1.89, 5.1219511, 0.0726923, 0, 1.89, -103.5365906, 1.89, -111.7682953, 1.89, -13.2317076, 0.0726923, 0.0025177, 1.89, -142.6829376, 1.89, -347.8049011, 1.89, 73.2926865, 0.0726923, 0.0043641, 1.89, -20.3048782, 1.89, -63.6585388, 1.89, -17.8048782, , , , , , , , , , , , , , , , , , , , , , 
0.0732115, -0.0152743, 1.9035, -16.7073174, 1.9035, -163.9024353, 1.9035, -22.9268303, 0.0732115, 0.0431373, 1.9035, 0.5487805, 1.9035, -169.3292694, 1.9035, 19.3902435, 0.0732115, 0.0105745, 1.9035, 44.2682953, 1.9035, -157.5609741, 1.9035, 100.2439041, 0.0732115, -0.0199741, 1.9035, 22.6219521, 1.9035, -64.6341476, 1.9035, 18.4146347, 0.0732115, 0.079057, 1.9035, 100.7317123, 1.9035, -329.512207, 1.9035, -1.2195122, 0.0732115, 0, 1.9035, -105.5487823, 1.9035, -125.0609818, 1.9035, -31.4024391, 0.0732115, 0.0052033, 1.9035, -133.6585388, 1.9035, -314.9390259, 1.9035, 84.8780518, 0.0732115, 0.0038605, 1.9035, -21.8902435, 1.9035, -62.1951218, 1.9035, -16.4024391, , , , , , , , , , , , , , , , , , , , , , 
0.0737308, -0.0159457, 1.917, -23.4146347, 1.917, -144.9390259, 1.917, -24.5121956, 0.0737308, 0.0508583, 1.917, 0, 1.917, -155.7926941, 1.917, 17.8048782, 0.0737308, -0.0015106, 1.917, 35.6097565, 1.917, -185.1219482, 1.917, 109.3902435, 0.0737308, -0.0229953, 1.917, 23.9634151, 1.917, -62.9878082, 1.917, 18.780489, 0.0737308, 0.0777142, 1.917, 98.8414688, 1.917, -317.2561035, 1.917, -9.4512196, 0.0737308, 0, 1.917, -105.9756088, 1.917, -146.4634247, 1.917, -46.4634171, 0.0737308, 0.0045319, 1.917, -128.6585388, 1.917, -295.73172, 1.917, 90.3658524, 0.0737308, 0.0028534, 1.917, -23.2317085, 1.917, -60.4268303, 1.917, -15.3658543, , , , , , , , , , , , , , , , , , , , , , 
0.07425, -0.0157778, 1.9305, -30.7926846, 1.9305, -125.9146347, 1.9305, -24.6341476, 0.07425, 0.0515297, 1.9305, 0.1219512, 1.9305, -147.9268341, 1.9305, 15.9146347, 0.07425, -0.0182956, 1.9305, 28.0487804, 1.9305, -223.5365906, 1.9305, 112.9878082, 0.07425, -0.0354162, 1.9305, 24.8780499, 1.9305, -62.3170738, 1.9305, 18.9024391, 0.07425, 0.0592508, 1.9305, 100.1219559, 1.9305, -294.8780518, 1.9305, -17.6219521, 0.07425, 0, 1.9305, -105.8536606, 1.9305, -173.9024506, 1.9305, -56.8292694, 0.07425, 0.0045319, 1.9305, -119.5121994, 1.9305, -258.3536682, 1.9305, 97.5, 0.07425, 0.0052033, 1.9305, -24.1463413, 1.9305, -59.6341476, 1.9305, -14.5121956, , , , , , , , , , , , , , , , , , , , , , 
0.0747692, -0.0135958, 1.944, -35.9756088, 1.944, -107.5609818, 1.944, -22.7439022, 0.0747692, 0.0431373, 1.944, 0.6097561, 1.944, -131.4024353, 1.944, 10.9756098, 0.0747692, -0.0439765, 1.944, 24.0243912, 1.944, -261.6463623, 1.944, 114.2073212, 0.0747692, -0.0619364, 1.944, 25.3048782, 1.944, -61.7073174, 1.944, 18.9634151, 0.0747692, 0.0364233, 1.944, 100, 1.944, -265.8536682, 1.944, -25.9146347, 0.0747692, 0, 1.944, -108.9634171, 1.944, -216.8902435, 1.944, -65.18293, 0.0747692, 0.0072175, 1.944, -113.9634171, 1.944, -227.012207, 1.944, 98.1707306, 0.0747692, 0.0068818, 1.944, -25.2439022, 1.944, -58.5975609, 1.944, -13.780488, , , , , , , , , , , , , , , , , , , , , , 
0.0752885, -0.0109102, 1.9575, -39.3902435, 1.9575, -87.8658524, 1.9575, -19.8780499, 0.0752885, 0.0330663, 1.9575, 3.2317073, 1.9575, -114.3292694, 1.9575, 4.0853658, 0.0752885, -0.0673075, 1.9575, 21.8902435, 1.9575, -275.5487976, 1.9575, 118.2317123, 0.0752885, -0.096849, 1.9575, 26.2195129, 1.9575, -57.6219521, 1.9575, 19.3902435, 0.0752885, 0.0243381, 1.9575, 97.5, 1.9575, -243.9024506, 1.9575, -33.9024391, 0.0752885, 0, 1.9575, -114.3902435, 1.9575, -254.2073212, 1.9575, -72.8658524, 0.0752885, 0.0085603, 1.9575, -113.2317123, 1.9575, -206.5243988, 1.9575, 94.2073212, 0.0752885, 0.0072175, 1.9575, -25.9756107, 1.9575, -56.9512215, 1.9575, -13.0487804, , , , , , , , , , , , , , , , , , , , , , 
0.0758077, -0.0112459, 1.971, -40.5487823, 1.971, -77.8048782, 1.971, -18.1097565, 0.0758077, 0.027863, 1.971, 7.3780489, 1.971, -100, 1.971, -3.2317073, 0.0758077, -0.0800641, 1.971, 21.6463413, 1.971, -283.3536682, 1.971, 125.6707382, 0.0758077, -0.1111162, 1.971, 27.0731716, 1.971, -53.4756126, 1.971, 20.060976, 0.0758077, 0.0182956, 1.971, 98.7195129, 1.971, -226.9512177, 1.971, -35.2439041, 0.0758077, 0, 1.971, -121.2195129, 1.971, -285.73172, 1.971, -80.1219559, 0.0758077, 0.0073854, 1.971, -112.7439041, 1.971, -192.9878082, 1.971, 87.8048782, 0.0758077, 0.0058747, 1.971, -26.9512196, 1.971, -50.4268303, 1.971, -11.0975609, , , , , , , , , , , , , , , , , , , , , , 
0.0763269, -0.0127565, 1.9845, -39.6341476, 1.9845, -59.6951218, 1.9845, -13.9634151, 0.0763269, 0.0256809, 1.9845, 13.3536587, 1.9845, -86.9512253, 1.9845, -8.5365858, 0.0763269, -0.0728466, 1.9845, 23.1097565, 1.9845, -305.5487976, 1.9845, 132.3780518, 0.0763269, -0.0854353, 1.9845, 28.3536587, 1.9845, -48.7804871, 1.9845, 20.8536587, 0.0763269, 0.0092317, 1.9845, 94.5731735, 1.9845, -215.4878082, 1.9845, -29.8780499, 0.0763269, 0, 1.9845, -127.0731735, 1.9845, -304.3902588, 1.9845, -84.7560959, 0.0763269, 0.0075532, 1.9845, -110.1219559, 1.9845, -186.0975647, 1.9845, 80.3658524, 0.0763269, 0.003357, 1.9845, -28.3536587, 1.9845, -44.5731735, 1.9845, -9.4512196, , , , , , , , , , , , , , , , , , , , , , 
0.0768462, -0.0124208, 1.998, -35, 1.998, -44.2682953, 1.998, -9.5731707, 0.0768462, 0.0213169, 1.998, 18.2317085, 1.998, -71.4024429, 1.998, -12.560976, 0.0768462, -0.0501869, 1.998, 26.5853672, 1.998, -325.3658752, 1.998, 136.646347, 0.0768462, -0.0599222, 1.998, 29.9390259, 1.998, -46.7073174, 1.998, 22.3170738, 0.0768462, -0.0062104, 1.998, 82.5609741, 1.998, -201.2195129, 1.998, -22.9268303, 0.0768462, 0, 1.998, -130.5487823, 1.998, -302.7438965, 1.998, -86.2804871, 0.0768462, 0.0082246, 1.998, -107.8048782, 1.998, -180, 1.998, 71.7073212, 0.0768462, 0.0030213, 1.998, -30.9756107, 1.998, -45.2439041, 1.998, -7.8048782, , , , , , , , , , , , , , , , , , , , , , 
0.0773654, -0.0135958, 2.0115, -33.1097565, 2.0115, -35.1829262, 2.0115, -6.0975609, 0.0773654, 0.0213169, 2.0115, 21.2195129, 2.0115, -60.6097565, 2.0115, -14.4512196, 0.0773654, -0.0372625, 2.0115, 29.6341476, 2.0115, -330.7926941, 2.0115, 138.7195129, 0.0773654, -0.0740215, 2.0115, 32.0731697, 2.0115, -45, 2.0115, 23.8414631, 0.0773654, -0.0397803, 2.0115, 74.5121994, 2.0115, -181.646347, 2.0115, -13.0487804, 0.0773654, 0, 2.0115, -131.3414612, 2.0115, -296.0365906, 2.0115, -85.9146347, 0.0773654, 0.0105745, 2.0115, -107.7439041, 2.0115, -168.5975647, 2.0115, 61.9512215, 0.0773654, 0.005539, 2.0115, -33.2926826, 2.0115, -45.7926826, 2.0115, -5.670732, , , , , , , , , , , , , , , , , , , , , , 
0.0778846, -0.0184634, 2.025, -37.1341476, 2.025, -34.8170738, 2.025, -4.6341462, 0.0778846, 0.0320592, 2.025, 22.6219521, 2.025, -52.8658562, 2.025, -15.060976, 0.0778846, -0.0394446, 2.025, 33.3536606, 2.025, -319.7561035, 2.025, 138.3536682, 0.0778846, -0.0944991, 2.025, 34.8780479, 2.025, -44.0853653, 2.025, 26.280489, 0.0778846, -0.0785534, 2.025, 68.7804871, 2.025, -162.5609741, 2.025, -0.3658537, 0.0778846, 0, 2.025, -130.7317047, 2.025, -279.0853577, 2.025, -84.0853653, 0.0778846, 0.0124208, 2.025, -108.3536606, 2.025, -148.3536682, 2.025, 50, 0.0778846, 0.0065461, 2.025, -36.2804871, 2.025, -43.2926826, 2.025, -3.5975611, , , , , , , , , , , , , , , , , , , , , , 
0.0784038, -0.0240024, 2.0385, -43.4756126, 2.0385, -42.0121956, 2.0385, -3.4146342, 0.0784038, 0.0407874, 2.0385, 25.9146347, 2.0385, -54.0243912, 2.0385, -15.5487804, 0.0784038, -0.0419623, 2.0385, 34.0243912, 2.0385, -293.23172, 2.0385, 135.4878082, 0.0784038, -0.0787213, 2.0385, 37.8658562, 2.0385, -45.2439041, 2.0385, 30.060976, 0.0784038, -0.0921492, 2.0385, 64.8780518, 2.0385, -149.0243988, 2.0385, 14.1463413, 0.0784038, 0, 2.0385, -126.8902435, 2.0385, -254.6951294, 2.0385, -81.2804871, 0.0784038, 0.0112459, 2.0385, -108.5365906, 2.0385, -121.0975647, 2.0385, 36.2195129, 0.0784038, 0.0025177, 2.0385, -40.7926826, 2.0385, -43.5975609, 2.0385, -2.8658538, , , , , , , , , , , , , , , , , , , , , , 
0.0789231, -0.0256809, 2.052, -48.3536606, 2.052, -52.4390259, 2.052, -2.5609756, 0.0789231, 0.0370947, 2.052, 28.2926826, 2.052, -59.3902435, 2.052, -16.1585369, 0.0789231, -0.036759, 2.052, 27.8658543, 2.052, -254.4512329, 2.052, 131.1585388, 0.0789231, -0.0216526, 2.052, 40.9146347, 2.052, -48.3536606, 2.052, 33.9634171, 0.0789231, -0.0793927, 2.052, 65.6097565, 2.052, -144.3292694, 2.052, 22.1951218, 0.0789231, 0, 2.052, -118.5975647, 2.052, -220.4878082, 2.052, -78.6585388, 0.0789231, 0.0077211, 2.052, -107.3170776, 2.052, -97.9878082, 2.052, 23.2926826, 0.0789231, -0.0048676, 2.052, -45.3048782, 2.052, -46.7682953, 2.052, -2.195122, , , , , , , , , , , , , , , , , , , , , , 
0.0794423, -0.0256809, 2.0655, -51.0365868, 2.0655, -62.9268303, 2.0655, -3.5365853, 0.0794423, 0.0273594, 2.0655, 29.4512196, 2.0655, -68.5365906, 2.0655, -17.439024, 0.0794423, -0.0283665, 2.0655, 14.4512196, 2.0655, -207.9878082, 2.0655, 126.9512253, 0.0794423, 0.0387732, 2.0655, 44.5731735, 2.0655, -51.8292694, 2.0655, 37.6219521, 0.0794423, -0.0498512, 2.0655, 71.1585388, 2.0655, -138.4756165, 2.0655, 38.5365868, 0.0794423, 0, 2.0655, -111.1585388, 2.0655, -195.4878082, 2.0655, -76.2195129, 0.0794423, 0.0041962, 2.0655, -104.3902435, 2.0655, -71.7682953, 2.0655, 10.9756098, 0.0794423, -0.0085603, 2.0655, -49.2073174, 2.0655, -51.2195129, 2.0655, -0.7317073, , , , , , , , , , , , , , , , , , , , , , 
0.0799615, -0.0283665, 2.079, -55.3048782, 2.079, -74.8170776, 2.079, -5.1829271, 0.0799615, 0.0213169, 2.079, 30.2439022, 2.079, -78.7195129, 2.079, -18.780489, 0.0799615, -0.0229953, 2.079, 5.2439027, 2.079, -186.646347, 2.079, 125.0609818, 0.0799615, 0.0381018, 2.079, 0, 2.079, 0, 2.079, 0, 0.0799615, -0.023331, 2.079, 76.4024429, 2.079, -142.0731812, 2.079, 52.0121956, 0.0799615, 0, 2.079, -116.2804871, 2.079, -203.7804871, 2.079, -73.0487823, 0.0799615, 0.0003357, 2.079, -106.0975647, 2.079, -60.0609779, 2.079, -1.5853659, 0.0799615, -0.0058747, 2.079, -53.6585388, 2.079, -54.8170738, 2.079, 1.2804878, , , , , , , , , , , , , , , , , , , , , , 
0.0804808, -0.0313878, 2.0925, -64.2073212, 2.0925, -87.3780518, 2.0925, -4.9390244, 0.0804808, 0.0213169, 2.0925, 32.2560997, 2.0925, -89.4512253, 2.0925, -20.3048782, 0.0804808, -0.0206455, 2.0925, -3.7195122, 2.0925, -152.3170776, 2.0925, 128.5975647, 0.0804808, -0.0223239, 2.0925, 51.4024391, 2.0925, -51.5853653, 2.0925, 44.7560997, 0.0804808, -0.0229953, 2.0925, 83.7804871, 2.0925, -149.2073212, 2.0925, 59.7560997, 0.0804808, 0, 2.0925, -110.8536606, 2.0925, -158.4756165, 2.0925, -82.8658524, 0.0804808, -0.0035248, 2.0925, -103.0487823, 2.0925, -72.8658524, 2.0925, -12.1951218, 0.0804808, 0.0035248, 2.0925, -57.8048782, 2.0925, -52.5, 2.0925, 3.4756098, , , , , , , , , , , , , , , , , , , , , , 
0.081, -0.0344091, 2.106, -74.2073212, 2.106, -100.18293, 2.106, -2.1341465, 0.081, 0.0246738, 2.106, 32.8658562, 2.106, -92.68293, 2.106, -21.280489, 0.081, -0.0216526, 2.106, -16.6463413, 2.106, -131.8292694, 2.106, 122.9268341, 0.081, -0.0844282, 2.106, 55, 2.106, -50.3658562, 2.106, 48.9634171, 0.081, -0.0379339, 2.106, 85.1219559, 2.106, -144.6341553, 2.106, 52.6829262, 0.081, -0.064622, 2.106, -94.5121994, 2.106, -185.4878082, 2.106, -89.8170776, 0.081, -0.0082246, 2.106, -99.8170776, 2.106, -72.6219559, 2.106, -11.8902445, 0.081, 0.0139315, 2.106, -59.9390259, 2.106, -50.3658562, 2.106, 4.7560978, , , , , , , , , , , , , , , , , , , , , , 
0.0815192, -0.0370947, 2.1195, -80.18293, 2.1195, -107.1341476, 2.1195, 1.8902439, 0.0815192, 0.0297093, 2.1195, 34.8170738, 2.1195, -94.3902435, 2.1195, -23.0487804, 0.0815192, -0.0243381, 2.1195, -52.0731735, 2.1195, -165.4268341, 2.1195, 99.4512253, 0.0815192, -0.0894636, 2.1195, 57.0121956, 2.1195, -50, 2.1195, 51.0975609, 0.0815192, -0.0350805, 2.1195, 76.8292694, 2.1195, -115.36586, 2.1195, 31.6463413, 0.0815192, -0.0760357, 2.1195, -58.6585388, 2.1195, -216.0365906, 2.1195, -98.2317123, 0.0815192, -0.012253, 2.1195, -89.6951218, 2.1195, -60.4878044, 2.1195, -4.7560978, 0.0815192, 0.0213169, 2.1195, -65, 2.1195, -45.9146347, 2.1195, 7.5609756, , , , , , , , , , , , , , , , , , , , , , 
0.0820385, -0.0391089, 2.133, -80.2439041, 2.133, -110.7317123, 2.133, 3.9024391, 0.0820385, 0.0339055, 2.133, 36.9512215, 2.133, -98.1097565, 2.133, -22.9878063, 0.0820385, -0.0246738, 2.133, -72.9878082, 2.133, -189.8170776, 2.133, 78.9024429, 0.0820385, -0.0716716, 2.133, 61.5853691, 2.133, -49.6341476, 2.133, 56.0975609, 0.0820385, -0.0209812, 2.133, 87.3780518, 2.133, -89.3902435, 2.133, 25.3658543, 0.0820385, -0.0780499, 2.133, -43.3536606, 2.133, -218.6585388, 2.133, -91.4024429, 0.0820385, -0.0176242, 2.133, -102.3170776, 2.133, -117.1951218, 2.133, -6.0975609, 0.0820385, 0.0246738, 2.133, -71.0975647, 2.133, -47.5, 2.133, 10.4878054, , , , , , , , , , , , , , , , , , , , , , 
0.0825577, -0.0424659, 2.1465, -77.8658524, 2.1465, -123.4756088, 2.1465, 7.0121951, 0.0825577, 0.0391089, 2.1465, 32.1341476, 2.1465, -108.6585388, 2.1465, -21.5243912, 0.0825577, -0.0216526, 2.1465, -14.0243902, 2.1465, -208.0487823, 2.1465, 56.8902435, 0.0825577, -0.0736858, 2.1465, 66.4634171, 2.1465, -49.7560997, 2.1465, 60.5487823, 0.0825577, -0.0075532, 2.1465, 103.4756088, 2.1465, -84.3902435, 2.1465, 45.0609779, 0.0825577, -0.064622, 2.1465, -83.5365906, 2.1465, -182.0731812, 2.1465, -49.8780518, 0.0825577, -0.0223239, 2.1465, -114.8780518, 2.1465, -154.0243988, 2.1465, -10.6707315, 0.0825577, 0.0209812, 2.1465, -77.4390259, 2.1465, -52.0731735, 2.1465, 13.5975609, , , , , , , , , , , , , , , , , , , , , , 
0.0830769, -0.0428016, 2.16, -70.3048782, 2.16, -140.2439117, 2.16, 8.5975609, 0.0830769, 0.0495155, 2.16, 23.0487804, 2.16, -117.9878082, 2.16, -19.0243912, 0.0830769, -0.0186313, 2.16, 65.8536606, 2.16, -174.9390259, 2.16, 60.5487823, 0.0830769, -0.0649577, 2.16, 72.3780518, 2.16, -49.5731735, 2.16, 63.3536606, 0.0830769, 0.0011749, 2.16, 104.9390259, 2.16, -104.0243912, 2.16, 65.6097565, 0.0830769, -0.033402, 2.16, -95.3658524, 2.16, -168.1097565, 2.16, -35.1829262, 0.0830769, -0.0229953, 2.16, -119.6341476, 2.16, -134.146347, 2.16, -12.0121956, 0.0830769, 0.0166171, 2.16, -80.9146347, 2.16, -56.5243912, 2.16, 17.6829281, , , , , , , , , , , , , , , , , , , , , , 
0.0835962, -0.0406195, 2.1735, -55, 2.1735, -154.146347, 2.1735, 9.2073174, 0.0835962, 0.0575723, 2.1735, 13.841464, 2.1735, -115.2439041, 2.1735, -15.7926836, 0.0835962, -0.0162814, 2.1735, 7.3170733, 2.1735, -123.1707382, 2.1735, 72.1341476, 0.0835962, -0.0471656, 2.1735, 80.3658524, 2.1735, -49.1463432, 2.1735, 65.8536606, 0.0835962, -0.0035248, 2.1735, 84.5731735, 2.1735, -131.4024353, 2.1735, 70.4878082, 0.0835962, 0.0152743, 2.1735, -59.3292694, 2.1735, 5.4878049, 2.1735, -39.7560997, 0.0835962, -0.0206455, 2.1735, -112.4390259, 2.1735, -89.3902435, 2.1735, -4.0243902, 0.0835962, 0.0157778, 2.1735, -84.146347, 2.1735, -61.341465, 2.1735, 21.0365868, , , , , , , , , , , , , , , , , , , , , , 
0.0841154, -0.0370947, 2.187, -38.2317085, 2.187, -154.3902435, 2.187, 7.3780489, 0.0841154, 0.0616007, 2.187, 3.0487804, 2.187, -109.5731735, 2.187, -14.6341467, 0.0841154, -0.0095674, 2.187, -72.3780518, 2.187, 18.2317085, 2.187, 73.2926865, 0.0841154, -0.0203098, 2.187, 85.7317123, 2.187, -64.8170776, 2.187, 67.5, 0.0841154, -0.0265202, 2.187, 54.3292694, 2.187, -140.6097565, 2.187, 62.8658562, 0.0841154, 0.0609293, 2.187, -2.5609756, 2.187, 170.0609741, 2.187, -47.3170738, 0.0841154, -0.0172885, 2.187, -93.7195129, 2.187, -45.9756126, 2.187, -0.9756098, 0.0841154, 0.0149386, 2.187, -85.6097565, 2.187, -69.3902435, 2.187, 21.5853672, , , , , , , , , , , , , , , , , , , , , , 
0.0846346, -0.0337377, 2.2005, -25.5487804, 2.2005, -132.86586, 2.2005, 4.5121951, 0.0846346, 0.0550546, 2.2005, -6.6463418, 2.2005, -109.5731735, 2.2005, -15.5487804, 0.0846346, -0.002182, 2.2005, -52.3170738, 2.2005, 243.4146423, 2.2005, 56.341465, 0.0846346, 0.0498512, 2.2005, 87.3170776, 2.2005, -92.2561035, 2.2005, 64.5121994, 0.0846346, -0.0552224, 2.2005, 42.6829262, 2.2005, -144.0853729, 2.2005, 57.5, 0.0846346, 0.0632792, 2.2005, -11.9512196, 2.2005, 278.23172, 2.2005, -20.9146347, 0.0846346, -0.0139315, 2.2005, -60.1219521, 2.2005, -7.6219516, 2.2005, -9.2073174, 0.0846346, 0.0119173, 2.2005, -79.6951218, 2.2005, -92.2561035, 2.2005, 20.7317085, , , , , , , , , , , , , , , , , , , , , , 
0.0851538, -0.0323949, 2.214, -17.6829281, 2.214, -112.5, 2.214, 0.7926829, 0.0851538, 0.0387732, 2.214, -9.3902445, 2.214, -107.6219559, 2.214, -13.1707315, 0.0851538, -0.0008392, 2.214, -34.2682953, 2.214, 336.0365906, 2.214, 54.8780518, 0.0851538, 0.1072557, 2.214, 88.9024429, 2.214, -145.1829376, 2.214, 56.4634171, 0.0851538, -0.0720073, 2.214, 32.4390259, 2.214, -147.3780518, 2.214, 47.6829262, 0.0851538, 0.0125887, 2.214, -31.9512196, 2.214, 334.8170776, 2.214, -7.8048782, 0.0851538, -0.0129244, 2.214, -52.6829262, 2.214, -38.2926826, 2.214, -26.9512196, 0.0851538, 0.0072175, 2.214, -65.9756088, 2.214, -143.1097565, 2.214, 20.1829281, , , , , , , , , , , , , , , , , , , , , , 
0.0856731, -0.030045, 2.2275, -12.1341467, 2.2275, -110.18293, 2.2275, -5.3658538, 0.0856731, 0.01561, 2.2275, -3.4756098, 2.2275, -98.4756088, 2.2275, -0.5487805, 0.0856731, -0.0068818, 2.2275, -38.1707344, 2.2275, 153.4146423, 2.2275, 58.841465, 0.0856731, 0.1206836, 2.2275, 90.9146347, 2.2275, -215, 2.2275, 46.8292694, 0.0856731, -0.0720073, 2.2275, 15.5487804, 2.2275, -87.5609741, 2.2275, 54.2073174, 0.0856731, -0.0357519, 2.2275, -35.9146347, 2.2275, 156.5853729, 2.2275, -30.1219521, 0.0856731, -0.0109102, 2.2275, -60, 2.2275, -76.7682953, 2.2275, -57.3170738, 0.0856731, 0.0001678, 2.2275, -47.0731735, 2.2275, -208.1707306, 2.2275, 17.1951218, , , , , , , , , , , , , , , , , , , , , , 
0.0861923, -0.0290379, 2.241, -3.1707318, 2.241, -136.9512177, 2.241, -19.2682934, 0.0861923, -0.0099031, 2.241, 2.6219513, 2.241, -102.5, 2.241, 21.5243912, 0.0861923, -0.0129244, 2.241, -22.3780499, 2.241, -26.280489, 2.241, 70.9756088, 0.0861923, 0.1606317, 2.241, 0, 2.241, 0, 2.241, 0, 0.0861923, -0.0610971, 2.241, -26.5853672, 2.241, -12.6829271, 2.241, 77.8048782, 0.0861923, -0.036759, 2.241, -48.6585388, 2.241, -90.9756088, 2.241, -53.7195129, 0.0861923, -0.0085603, 2.241, -62.0121956, 2.241, -53.4756126, 2.241, -86.0365906, 0.0861923, -0.0068818, 2.241, -34.5121956, 2.241, -297.4390259, 2.241, 5.3048782, , , , , , , , , , , , , , , , , , , , , , 
0.0867115, -0.0290379, 2.2545, 13.1707315, 2.2545, -188.1097565, 2.2545, -40.4878044, 0.0867115, -0.030045, 2.2545, -0.4878049, 2.2545, -134.7561035, 2.2545, 43.9024391, 0.0867115, -0.0176242, 2.2545, 33.6585388, 2.2545, -101.5853653, 2.2545, 69.6341476, 0.0867115, 0.2113222, 2.2545, 106.9512253, 2.2545, -397.6219482, 2.2545, 46.341465, 0.0867115, -0.0391089, 2.2545, -74.5121994, 2.2545, 32.9268303, 2.2545, 108.6585388, 0.0867115, -0.0139315, 2.2545, -83.3536606, 2.2545, -194.512207, 2.2545, -42.2560997, 0.0867115, -0.0078889, 2.2545, -27.2560978, 2.2545, 29.3292694, 2.2545, -103.1097565, 0.0867115, -0.0112459, 2.2545, -34.7560997, 2.2545, -364.8780518, 2.2545, -3.9024391, , , , , , , , , , , , , , , , , , , , , , 
0.0872308, -0.0280308, 2.268, 35.9146347, 2.268, -248.4146423, 2.268, -60.3048782, 0.0872308, -0.0417945, 2.268, -5.609756, 2.268, -156.8292694, 2.268, 53.9024391, 0.0872308, -0.0216526, 2.268, 66.2804871, 2.268, -133.7195129, 2.268, 62.3170738, 0.0872308, 0.1952087, 2.268, 111.4634171, 2.268, -487.2561035, 2.268, 38.2926826, 0.0872308, -0.0115816, 2.268, -107.3780518, 2.268, 59.3902435, 2.268, 125.1219559, 0.0872308, 0.0011749, 2.268, -91.5853653, 2.268, -196.7682953, 2.268, -18.1097565, 0.0872308, -0.0041962, 2.268, 8.719512, 2.268, 84.5121994, 2.268, -106.5853653, 0.0872308, -0.012253, 2.268, -32.8658562, 2.268, -514.9390259, 2.268, -22.8048782, , , , , , , , , , , , , , , , , , , , , , 
0.08775, -0.0265202, 2.2815, 45.3048782, 2.2815, -286.1585388, 2.2815, -67.8048782, 0.08775, -0.0481727, 2.2815, -22.9878063, 2.2815, -207.8048859, 2.2815, 73.4146347, 0.08775, -0.0240024, 2.2815, 65.7926865, 2.2815, -132.86586, 2.2815, 58.2926826, 0.08775, 0.1237049, 2.2815, 77.9268341, 2.2815, -547.8048706, 2.2815, 8.0487804, 0.08775, 0.0124208, 2.2815, -107.5609818, 2.2815, 67.5609741, 2.2815, 102.5609818, 0.08775, 0.0078889, 2.2815, -76.8292694, 2.2815, -116.9512253, 2.2815, -8.5365858, 0.08775, -0.0008392, 2.2815, 12.7439032, 2.2815, 43.0487823, 2.2815, -97.6219559, 0.08775, -0.008896, 2.2815, 1.3414634, 2.2815, -592.5609741, 2.2815, -36.2804871, , , , , , , , , , , , , , , , , , , , , , 
