Application:, Trigno Discover (2.0.1.3)
Date/Time:, 04-Nov-25 15:25:48
Collection Length (seconds):, 2.997
 Hamstrings right (85641), , , , , , , ,  Rectus Femoris right (85844), , , , , , , ,  Gastrocnemius left (85904), , , , , , , , TibilaisÂ Anterior right (85650), , , , , , , ,  Hamstrings left (85586), , , , , , , , TibilaisÂ Anterior left (85605), , , , , , , ,  Rectus Femoris left (85878), , , , , , , ,  Gastrocnemius right (85873)
sensor mode: 49, , , , , , , , sensor mode: 49, , , , , , , , sensor mode: 49, , , , , , , , sensor mode: 49, , , , , , , , sensor mode: 49, , , , , , , , sensor mode: 49, , , , , , , , sensor mode: 49, , , , , , , , sensor mode: 49
EMG 1 Time Series (s), EMG 1 (mV), GYRO X Time Series (s), GYRO X (deg/s), GYRO Y Time Series (s), GYRO Y (deg/s), GYRO Z Time Series (s), GYRO Z (deg/s), EMG 1 Time Series (s), EMG 1 (mV), GYRO X Time Series (s), GYRO X (deg/s), GYRO Y Time Series (s), GYRO Y (deg/s), GYRO Z Time Series (s), GYRO Z (deg/s), EMG 1 Time Series (s), EMG 1 (mV), GYRO X Time Series (s), GYRO X (deg/s), GYRO Y Time Series (s), GYRO Y (deg/s), GYRO Z Time Series (s), GYRO Z (deg/s), EMG 1 Time Series (s), EMG 1 (mV), GYRO X Time Series (s), GYRO X (deg/s), GYRO Y Time Series (s), GYRO Y (deg/s), GYRO Z Time Series (s), GYRO Z (deg/s), EMG 1 Time Series (s), EMG 1 (mV), GYRO X Time Series (s), GYRO X (deg/s), GYRO Y Time Series (s), GYRO Y (deg/s), GYRO Z Time Series (s), GYRO Z (deg/s), EMG 1 Time Series (s), EMG 1 (mV), GYRO X Time Series (s), GYRO X (deg/s), GYRO Y Time Series (s), GYRO Y (deg/s), GYRO Z Time Series (s), GYRO Z (deg/s), EMG 1 Time Series (s), EMG 1 (mV), GYRO X Time Series (s), GYRO X (deg/s), GYRO Y Time Series (s), GYRO Y (deg/s), GYRO Z Time Series (s), GYRO Z (deg/s), EMG 1 Time Series (s), EMG 1 (mV), GYRO X Time Series (s), GYRO X (deg/s), GYRO Y Time Series (s), GYRO Y (deg/s), GYRO Z Time Series (s), GYRO Z (deg/s)
, 1925.9259 Hz, , 74.0741 Hz, , 74.0741 Hz, , 74.0741 Hz, , 1925.9259 Hz, , 74.0741 Hz, , 74.0741 Hz, , 74.0741 Hz, , 1925.9259 Hz, , 74.0741 Hz, , 74.0741 Hz, , 74.0741 Hz, , 1925.9259 Hz, , 74.0741 Hz, , 74.0741 Hz, , 74.0741 Hz, , 1925.9259 Hz, , 74.0741 Hz, , 74.0741 Hz, , 74.0741 Hz, , 1925.9259 Hz, , 74.0741 Hz, , 74.0741 Hz, , 74.0741 Hz, , 1925.9259 Hz, , 74.0741 Hz, , 74.0741 Hz, , 74.0741 Hz, , 1925.9259 Hz, , 74.0741 Hz, , 74.0741 Hz, , 74.0741 Hz
, 0.0005192307692307692 s, , 0.0135 s, , 0.0135 s, , 0.0135 s, , 0.0005192307692307692 s, , 0.0135 s, , 0.0135 s, , 0.0135 s, , 0.0005192307692307692 s, , 0.0135 s, , 0.0135 s, , 0.0135 s, , 0.0005192307692307692 s, , 0.0135 s, , 0.0135 s, , 0.0135 s, , 0.0005192307692307692 s, , 0.0135 s, , 0.0135 s, , 0.0135 s, , 0.0005192307692307692 s, , 0.0135 s, , 0.0135 s, , 0.0135 s, , 0.0005192307692307692 s, , 0.0135 s, , 0.0135 s, , 0.0135 s, , 0.0005192307692307692 s, , 0.0135 s, , 0.0135 s, , 0.0135 s, , Type, Name, Label, Time (s), , Pair, E1, E2, T1, T2, V1, V2, Sensor, Channel, Units, Delta T, RMS, PKPK, Peak Value, TPK, Integral
0, -0.0045319, 0, -239.2682953, 0, -72.2560959, 0, 165.7926941, 0, -0.0031891, 0, 451.9512329, 0, -179.8780518, 0, -94.5121994, 0, -0.0475013, 0, 12.3780489, 0, -14.9390249, 0, 87.9268341, 0, 0.008896, 0, -6.9512196, 0, -670, 0, -210.5487823, 0, -0.0602579, 0, 125.6097565, 0, -234.7561035, 0, -107.2561035, 0, 0.0078889, 0, -83.9634171, 0, -4.0853658, 0, 21.5853672, 0, -0.0975204, 0, -140.4268341, 0, -275.7926941, 0, -0.3658537, 0, -0.0157778, 0, 186.4024506, 0, -508.7804871, 0, 271.1585388, , , , , , , , , , , , , , , , , , , , , , 
0.0005192, -0.0095674, 0.0135, -334.6341553, 0.0135, 36.6463432, 0.0135, 153.8414612, 0.0005192, 0.0186313, 0.0135, 446.8902588, 0.0135, -14.9390249, 0.0135, -13.0487804, 0.0005192, -0.0461585, 0.0135, 17.3780499, 0.0135, -59.2073174, 0.0135, 52.6829262, 0.0005192, 0.0065461, 0.0135, -61.7682953, 0.0135, -607.5, 0.0135, -180.4268341, 0.0005192, -0.0417945, 0.0135, 68.3536606, 0.0135, -126.9512253, 0.0135, -64.8780518, 0.0005192, -0.0072175, 0.0135, -53.6585388, 0.0135, -57.3170738, 0.0135, 11.280488, 0.0005192, -0.0944991, 0.0135, -78.3536606, 0.0135, -154.7561035, 0.0135, -18.9634151, 0.0005192, -0.0146029, 0.0135, 173.0487823, 0.0135, -248.4756165, 0.0135, 248.3536682, , , , , , , , , , , , , , , , , , , , , , 
0.0010385, -0.0140993, 0.027, -488.7804871, 0.027, 21.0365868, 0.027, 154.6341553, 0.0010385, 0.0448157, 0.027, 335.3658752, 0.027, 4.2682929, 0.027, 40.4878044, 0.0010385, -0.030045, 0.027, 25, 0.027, -58.2317085, 0.027, 32.8658562, 0.0010385, 0.0060426, 0.027, -37.8658562, 0.027, -416.5853882, 0.027, -175.6097565, 0.0010385, -0.0154421, 0.027, -0.6707317, 0.027, -13.1707315, 0.027, -2.4390244, 0.0010385, -0.0219883, 0.027, -37.3780479, 0.027, -60.5487823, 0.027, 18.780489, 0.0010385, -0.0849317, 0.027, -41.5853653, 0.027, 37.2560997, 0.027, 6.2195125, 0.0010385, -0.0139315, 0.027, 220.6097565, 0.027, -306.5853882, 0.027, 100.9146347, , , , , , , , , , , , , , , , , , , , , , 
0.0015577, -0.0172885, 0.0405, -558.9024658, 0.0405, -183.3536682, 0.0405, 204.8780518, 0.0015577, 0.0733501, 0.0405, 461.9512329, 0.0405, -195.1829376, 0.0405, -16.0975609, 0.0015577, -0.012253, 0.0405, 20.8536587, 0.0405, -52.1951218, 0.0405, 32.0121956, 0.0015577, 0.0065461, 0.0405, 107.3170776, 0.0405, -117.4390259, 0.0405, -160.5487823, 0.0015577, 0.0172885, 0.0405, 0.1829268, 0.0405, 7.8048782, 0.0405, 16.4024391, 0.0015577, -0.0008392, 0.0405, -29.1463413, 0.0405, -45.6707344, 0.0405, 15.8536587, 0.0015577, -0.068986, 0.0405, -33.9634171, 0.0405, 43.2926826, 0.0405, 5.4268293, 0.0015577, -0.0142672, 0.0405, 195.6097565, 0.0405, -263.1097717, 0.0405, 78.6585388, , , , , , , , , , , , , , , , , , , , , , 
0.0020769, -0.0218204, 0.054, -544.7561035, 0.054, -283.1097717, 0.054, 215.6707306, 0.0020769, 0.1017166, 0.054, 532.7438965, 0.054, -210.1829376, 0.054, -49.2073174, 0.0020769, -0.0095674, 0.054, 1.2195122, 0.054, -30.1219521, 0.054, 33.1097565, 0.0020769, 0.0058747, 0.054, 214.512207, 0.054, 26.8902454, 0.054, -154.3902435, 0.0020769, 0.0464942, 0.054, 37.8048782, 0.054, -11.8292685, 0.054, -18.1707325, 0.0020769, 0.0307164, 0.054, -26.4634151, 0.054, -31.0365868, 0.054, 9.7560978, 0.0020769, -0.0501869, 0.054, -39.5121956, 0.054, -22.7439022, 0.054, -4.8170733, 0.0020769, -0.0152743, 0.054, -88.0487823, 0.054, 115.7317123, 0.054, 287.3780518, , , , , , , , , , , , , , , , , , , , , , 
0.0025962, -0.0290379, 0.0675, -539.0244141, 0.0675, -237.3780518, 0.0675, 225.9146423, 0.0025962, 0.1226978, 0.0675, 651.5244141, 0.0675, -146.0365906, 0.0675, -39.0243912, 0.0025962, -0.01561, 0.0675, -5.3048782, 0.0675, -17.3780499, 0.0675, 20.060976, 0.0025962, 0.0028534, 0.0675, 422.2561035, 0.0675, 119.8170776, 0.0675, -74.0243912, 0.0025962, 0.0622721, 0.0675, 54.4512215, 0.0675, -24.5121956, 0.0675, -60.5487823, 0.0025962, 0.0495155, 0.0675, -13.9024391, 0.0675, -13.1707315, 0.0675, 4.0853658, 0.0025962, -0.0223239, 0.0675, 0, 0.0675, 0, 0.0675, 0, 0.0025962, -0.0169528, 0.0675, -169.146347, 0.0675, 260.3048706, 0.0675, 371.1585388, , , , , , , , , , , , , , , , , , , , , , 
0.0031154, -0.0357519, 0.081, -514.3292847, 0.081, -113.7804871, 0.081, 288.1707458, 0.0031154, 0.1376364, 0.081, 560.1829224, 0.081, -44.2073174, 0.081, 2.0731707, 0.0031154, -0.0176242, 0.081, -2.5609756, 0.081, -18.1097565, 0.081, 1.2804878, 0.0031154, 0.0001678, 0.081, 578.3536987, 0.081, 86.7682953, 0.081, 117.0731735, 0.0031154, 0.0676432, 0.081, 57.9878044, 0.081, -28.0487804, 0.081, -73.4756088, 0.0031154, 0.0703288, 0.081, 4.0853658, 0.081, -5.5487804, 0.081, 7.6219516, 0.0031154, 0.0146029, 0.081, -30.5487804, 0.081, -104.4512253, 0.081, 23.1097565, 0.0031154, -0.0172885, 0.081, -365.1219482, 0.081, 315.9146423, 0.081, 428.7195129, , , , , , , , , , , , , , , , , , , , , , 
0.0036346, -0.0426337, 0.0945, -327.5609741, 0.0945, -56.7682953, 0.0945, 349.0853882, 0.0036346, 0.1520714, 0.0945, 530.1829224, 0.0945, 9.0853662, 0.0945, -1.402439, 0.0036346, -0.0149386, 0.0945, -7.4390244, 0.0945, -40.4268303, 0.0945, -10.5487804, 0.0036346, -0.0015106, 0.0945, 685.7317505, 0.0945, -29.0243912, 0.0945, 347.7438965, 0.0036346, 0.0713359, 0.0945, 61.4634171, 0.0945, -40.7317085, 0.0945, -80.6707306, 0.0036346, 0.0837568, 0.0945, 18.780489, 0.0945, -23.5365868, 0.0945, 2.0121951, 0.0036346, 0.0485084, 0.0945, 0, 0.0945, 0, 0.0945, 0, 0.0036346, -0.0172885, 0.0945, -657.7438965, 0.0945, 60.0609779, 0.0945, 405.9146423, , , , , , , , , , , , , , , , , , , , , , 
0.0041538, -0.0491798, 0.108, -273.23172, 0.108, 91.5853653, 0.108, 349.0243835, 0.0041538, 0.1653315, 0.108, 516.7073364, 0.108, -33.2926826, 0.108, -15.1219511, 0.0041538, -0.012253, 0.108, -19.6341476, 0.108, -90.9756088, 0.108, -21.9512196, 0.0041538, -0.0045319, 0.108, 769.8170776, 0.108, -72.5609741, 0.108, 524.8170776, 0.0041538, 0.0760357, 0.108, 91.4024429, 0.108, -51.9512215, 0.108, -67.8658524, 0.0041538, 0.0548867, 0.108, 36.0365868, 0.108, -72.3170776, 0.108, -15.2439032, 0.0041538, 0.0736858, 0.108, -53.2317085, 0.108, -60.7317085, 0.108, -4.5731707, 0.0041538, -0.0154421, 0.108, -861.0366211, 0.108, -87.9268341, 0.108, 355.6097717, , , , , , , , , , , , , , , , , , , , , , 
0.0046731, -0.0522011, 0.1215, -448.9634399, 0.1215, 389.3292847, 0.1215, 288.9024353, 0.0046731, 0.1740597, 0.1215, 435.6097717, 0.1215, 105.4878082, 0.1215, -7.8658538, 0.0046731, -0.0112459, 0.1215, -32.4390259, 0.1215, -118.9634171, 0.1215, -32.8658562, 0.0046731, -0.0097353, 0.1215, 881.7073364, 0.1215, -55.0609779, 0.1215, 623.7805176, 0.0046731, 0.0736858, 0.1215, 114.8780518, 0.1215, -112.8048782, 0.1215, -49.5731735, 0.0046731, 0.0010071, 0.1215, 46.4634171, 0.1215, -112.0121994, 0.1215, -33.9634171, 0.0046731, 0.0891279, 0.1215, -75.9146347, 0.1215, -93.2926865, 0.1215, -32.4390259, 0.0046731, -0.0162814, 0.1215, -976.3414917, 0.1215, -138.9024353, 0.1215, 380.2438965, , , , , , , , , , , , , , , , , , , , , , 
0.0051923, -0.054551, 0.135, -334.3292847, 0.135, 403.1097717, 0.135, 127.1341476, 0.0051923, 0.179263, 0.135, 407.5609741, 0.135, 377.8658752, 0.135, 52.5609779, 0.0051923, -0.0139315, 0.135, -42.8048782, 0.135, -105.7317123, 0.135, -46.1585388, 0.0051923, -0.0146029, 0.135, 1019.8780518, 0.135, -78.3536606, 0.135, 676.8292847, 0.0051923, 0.0597543, 0.135, 113.5365906, 0.135, -197.6219482, 0.135, -37.5, 0.0051923, -0.0287022, 0.135, 54.9390259, 0.135, -92.6219559, 0.135, -44.5731735, 0.0051923, 0.0975204, 0.135, -85.9756088, 0.135, -150.9756165, 0.135, -40.3048782, 0.0051923, -0.0162814, 0.135, -1144.6341553, 0.135, -173.5365906, 0.135, 544.1463623, , , , , , , , , , , , , , , , , , , , , , 
0.0057115, -0.057908, 0.1485, -173.4756165, 0.1485, 273.2926941, 0.1485, -32.1951218, 0.0057115, 0.1868162, 0.1485, 428.6585388, 0.1485, 446.8292847, 0.1485, 127.5, 0.0057115, -0.0213169, 0.1485, -45.9146347, 0.1485, -78.7804871, 0.1485, -46.7073174, 0.0057115, -0.0171206, 0.1485, 1201.8902588, 0.1485, -8.9634151, 0.1485, 806.5853882, 0.0057115, 0.0414588, 0.1485, 112.6219559, 0.1485, -211.7682953, 0.1485, -56.0975609, 0.0057115, -0.0290379, 0.1485, 51.4024391, 0.1485, -59.8170738, 0.1485, -46.7073174, 0.0057115, 0.0998703, 0.1485, -94.0853653, 0.1485, -186.2804871, 0.1485, -17.9268303, 0.0057115, -0.01561, 0.1485, -1310.1219482, 0.1485, -41.0975609, 0.1485, 764.6341553, , , , , , , , , , , , , , , , , , , , , , 
0.0062308, -0.0616007, 0.162, -9.6341467, 0.162, -84.3902435, 0.162, -134.0243988, 0.0062308, 0.1995727, 0.162, -11.9512196, 0.162, 307.1951294, 0.162, 124.4512253, 0.0062308, -0.0253452, 0.162, -47.5609779, 0.162, -70.4878082, 0.162, -35.6097565, 0.0062308, -0.018967, 0.162, 1071.2194824, 0.162, 14.0243902, 0.162, 896.0975952, 0.0062308, 0.0360876, 0.162, 85.18293, 0.162, -178.5365906, 0.162, -83.7804871, 0.0062308, -0.0186313, 0.162, 43.0487823, 0.162, -45.1829262, 0.162, -45.1219521, 0.0062308, 0.0965133, 0.162, -79.8170776, 0.162, -194.9390259, 0.162, 23.2926826, 0.0062308, -0.0132601, 0.162, -1358.963501, 0.162, 552.2561035, 0.162, 632.1951294, , , , , , , , , , , , , , , , , , , , , , 
0.00675, -0.0626078, 0.1755, -49.5121956, 0.1755, -284.3292847, 0.1755, -109.5731735, 0.00675, 0.2133364, 0.1755, -353.4756165, 0.1755, -265.2438965, 0.1755, 33.1707306, 0.00675, -0.0236667, 0.1755, -39.0853653, 0.1755, -92.4390259, 0.1755, -26.3414631, 0.00675, -0.0231632, 0.1755, 511.4024658, 0.1755, 296.5853577, 0.1755, 496.4634399, 0.00675, 0.0506905, 0.1755, 70.7926865, 0.1755, -139.6951294, 0.1755, -102.0121994, 0.00675, -0.0070497, 0.1755, 30.2439022, 0.1755, -44.8170738, 0.1755, -40.3658562, 0.00675, 0.0876173, 0.1755, -72.7439041, 0.1755, -191.8902435, 0.1755, 41.2195129, 0.00675, -0.0104067, 0.1755, -680.8536987, 0.1755, 999.3292847, 0.1755, 122.3170776, , , , , , , , , , , , , , , , , , , , , , 
0.0072692, -0.0614328, 0.189, -142.3780518, 0.189, -160.1829376, 0.189, -171.2195129, 0.0072692, 0.2227359, 0.189, -226.0975647, 0.189, -472.3780518, 0.189, 116.3414688, 0.0072692, -0.0240024, 0.189, -46.7073174, 0.189, -118.6585388, 0.189, -18.5975609, 0.0072692, -0.0310521, 0.189, 570.3658447, 0.189, 702.5, 0.189, 481.6463623, 0.0072692, 0.0800641, 0.189, 84.9390259, 0.189, -112.6219559, 0.189, -101.5243912, 0.0072692, 0.0005035, 0.189, 21.1585369, 0.189, -92.2561035, 0.189, -59.2682953, 0.0072692, 0.0777142, 0.189, -55.1219521, 0.189, -173.0487823, 0.189, 59.2682953, 0.0072692, -0.0068818, 0.189, -484.9390259, 0.189, -257.1341553, 0.189, -74.5731735, , , , , , , , , , , , , , , , , , , , , , 
0.0077885, -0.0589151, 0.2025, -222.86586, 0.2025, -53.7804909, 0.2025, -149.6951294, 0.0077885, 0.2240787, 0.2025, -48.2317085, 0.2025, -289.1463623, 0.2025, 263.9634094, 0.0077885, -0.0340734, 0.2025, -64.8170776, 0.2025, -141.646347, 0.2025, -20.5487804, 0.0077885, -0.0330663, 0.2025, 431.6463623, 0.2025, 475.7926941, 0.2025, 740.3658447, 0.0077885, 0.1122911, 0.2025, 91.0975647, 0.2025, -84.6341476, 0.2025, -88.2926865, 0.0077885, -0.0036927, 0.2025, 22.1951218, 0.2025, -98.4146347, 0.2025, -82.9878082, 0.0077885, 0.0710002, 0.2025, -37.9878044, 0.2025, -98.3536606, 0.2025, 53.7195129, 0.0077885, -0.0041962, 0.2025, -967.6219482, 0.2025, 910.1829224, 0.2025, -70.6707306, , , , , , , , , , , , , , , , , , , , , , 
0.0083077, -0.0565652, 0.216, -458.7195129, 0.216, -420.3049011, 0.216, -122.9878082, 0.0083077, 0.2143435, 0.216, 478.2926941, 0.216, -536.7683105, 0.216, 171.646347, 0.0083077, -0.0411231, 0.216, -73.2926865, 0.216, -148.4146423, 0.216, -27.5, 0.0083077, -0.026688, 0.216, 67.5609741, 0.216, -99.7561035, 0.216, 597.8658447, 0.0083077, 0.1401541, 0.216, 63.841465, 0.216, -17.1341476, 0.216, -64.7560959, 0.0083077, -0.0283665, 0.216, 26.5243912, 0.216, -105.6097565, 0.216, -88.2317123, 0.0083077, 0.0679789, 0.216, -44.9390259, 0.216, -48.0487823, 0.216, 49.3902435, 0.0083077, -0.0005035, 0.216, -525.3048706, 0.216, -92.8048782, 0.216, -235.9146423, , , , , , , , , , , , , , , , , , , , , , 
0.0088269, -0.0542153, 0.2295, -471.5244141, 0.2295, -377.3780518, 0.2295, -88.2317123, 0.0088269, 0.191516, 0.2295, 439.3902588, 0.2295, -432.012207, 0.2295, 250, 0.0088269, -0.04448, 0.2295, -77.9878082, 0.2295, -147.5609741, 0.2295, -17.0731716, 0.0088269, -0.0203098, 0.2295, 96.2195129, 0.2295, -46.7073174, 0.2295, 515, 0.0088269, 0.1596246, 0.2295, 44.0243912, 0.2295, -19.5731716, 0.2295, -42.0731735, 0.0088269, -0.0599222, 0.2295, 20.3048782, 0.2295, -134.3902435, 0.2295, -93.9634171, 0.0088269, 0.068986, 0.2295, -42.6219521, 0.2295, -41.8292694, 0.2295, 48.4756126, 0.0088269, 0.002182, 0.2295, -458.1097717, 0.2295, -658.8414917, 0.2295, -172.1951294, , , , , , , , , , , , , , , , , , , , , , 
0.0093462, -0.0535439, 0.243, -280.2438965, 0.243, 234.3902435, 0.243, -60.3048782, 0.0093462, 0.1589532, 0.243, 264.2683105, 0.243, 137.2561035, 0.243, 305.2438965, 0.0093462, -0.082414, 0.243, -77.0731735, 0.243, -168.5365906, 0.243, 4.8780489, 0.0093462, -0.0172885, 0.243, -120.7317123, 0.243, -252.3780518, 0.243, 194.6951294, 0.0093462, 0.1633173, 0.243, 45.1219521, 0.243, -41.7073174, 0.243, -32.2560997, 0.0093462, -0.0783856, 0.243, 10.4878054, 0.243, -150.5487823, 0.243, -85.7317123, 0.0093462, 0.0730144, 0.243, -45.7317085, 0.243, -69.0853653, 0.243, 25.2439022, 0.0093462, 0.005539, 0.243, -111.7682953, 0.243, -297.1951294, 0.243, -148.0487823, , , , , , , , , , , , , , , , , , , , , , 
0.0098654, -0.0522011, 0.2565, -120.6097565, 0.2565, -127.1341476, 0.2565, -122.0731735, 0.0098654, 0.1230335, 0.2565, 295.7926941, 0.2565, -141.0975647, 0.2565, 186.5243988, 0.0098654, -0.1824521, 0.2565, -53.7195129, 0.2565, -149.6951294, 0.2565, -3.0487804, 0.0098654, -0.0166171, 0.2565, -243.1097565, 0.2565, -32.1341476, 0.2565, 107.3170776, 0.0098654, 0.1428397, 0.2565, 49.7560997, 0.2565, -74.5731735, 0.2565, -14.6341467, 0.0098654, -0.0760357, 0.2565, 6.5243902, 0.2565, -121.4634171, 0.2565, -69.7560959, 0.0098654, 0.0803998, 0.2565, -56.7073174, 0.2565, -61.8292694, 0.2565, -0.9146342, 0.0098654, 0.0075532, 0.2565, -5.1829271, 0.2565, -43.841465, 0.2565, -239.4512177, , , , , , , , , , , , , , , , , , , , , , 
0.0103846, -0.0498512, 0.27, -413.8414612, 0.27, -262.6829224, 0.27, -32.1341476, 0.0103846, 0.0903029, 0.27, 276.4634094, 0.27, -181.1585388, 0.27, 158.5365906, 0.0103846, -0.270573, 0.27, -48.4756126, 0.27, -141.7682953, 0.27, -15.060976, 0.0103846, -0.0164492, 0.27, -257.9268494, 0.27, -180.9146423, 0.27, 130.3048859, 0.0103846, 0.1126268, 0.27, 39.6951218, 0.27, -49.7560997, 0.27, 0.1829268, 0.0103846, -0.0505226, 0.27, 11.4634151, 0.27, -101.8902435, 0.27, -72.5609741, 0.0103846, 0.0864424, 0.27, -58.2317085, 0.27, -52.3170738, 0.27, -9.6951218, 0.0103846, 0.0095674, 0.27, 3.4146342, 0.27, -289.512207, 0.27, -279.6341553, , , , , , , , , , , , , , , , , , , , , , 
0.0109038, -0.04448, 0.2835, -361.4024353, 0.2835, 11.219512, 0.2835, 49.8170738, 0.0109038, 0.0642863, 0.2835, 328.1707458, 0.2835, -186.9512177, 0.2835, 132.4390259, 0.0109038, -0.2606699, 0.2835, -55.7926826, 0.2835, -169.7561035, 0.2835, -9.2682924, 0.0109038, -0.0176242, 0.2835, -300.1829224, 0.2835, -292.012207, 0.2835, 41.2195129, 0.0109038, 0.1045701, 0.2835, 25.8536587, 0.2835, -45, 0.2835, 2.3780489, 0.0109038, -0.0216526, 0.2835, 9.2682924, 0.2835, -130.6097565, 0.2835, -84.9390259, 0.0109038, 0.0877852, 0.2835, -55.6097565, 0.2835, -65.0609741, 0.2835, -5.9756098, 0.0109038, 0.0142672, 0.2835, 151.0975647, 0.2835, -346.6463623, 0.2835, -222.9268341, , , , , , , , , , , , , , , , , , , , , , 
0.0114231, -0.0391089, 0.297, -303.1707458, 0.297, -38.7804871, 0.297, 50.6707344, 0.0114231, 0.0391089, 0.297, 347.5609741, 0.297, -284.5731812, 0.297, 101.7682953, 0.0114231, -0.1985657, 0.297, -53.4756126, 0.297, -217.012207, 0.297, 2.6219513, 0.0114231, -0.018967, 0.297, -326.5243835, 0.297, -400.8536682, 0.297, 11.280488, 0.0114231, 0.1282368, 0.297, 27.1341476, 0.297, -100.1219559, 0.297, -21.4634151, 0.0114231, -0.0198062, 0.297, 2.8658538, 0.297, -187.8048859, 0.297, -85.3048782, 0.0114231, 0.0814069, 0.297, -54.1463432, 0.297, -95.4268341, 0.297, 18.780489, 0.0114231, 0.0209812, 0.297, 130.0609741, 0.297, -390.1829224, 0.297, -179.6951294, , , , , , , , , , , , , , , , , , , , , , 
0.0119423, -0.036759, 0.3105, -237.6829376, 0.3105, -198.5975647, 0.3105, -49.1463432, 0.0119423, 0.0063783, 0.3105, 404.2073364, 0.3105, -371.2804871, 0.3105, 62.9268303, 0.0119423, -0.1586175, 0.3105, -37.8048782, 0.3105, -243.7195129, 0.3105, 1.9512196, 0.0119423, -0.0209812, 0.3105, -270.73172, 0.3105, -457.4390259, 0.3105, 60.3658562, 0.0119423, 0.156939, 0.3105, 55.4268303, 0.3105, -169.0853729, 0.3105, -63.5365868, 0.0119423, -0.0344091, 0.3105, 7.8048782, 0.3105, -230.3048859, 0.3105, -68.2926865, 0.0119423, 0.0686503, 0.3105, -66.4024429, 0.3105, -158.6585388, 0.3105, 33.9024391, 0.0119423, 0.0280308, 0.3105, 81.646347, 0.3105, -434.2683105, 0.3105, -180.0609741, , , , , , , , , , , , , , , , , , , , , , 
0.0124615, -0.0374304, 0.324, -284.512207, 0.324, 191.7073212, 0.324, -59.5121956, 0.0124615, -0.0364233, 0.324, 390.2438965, 0.324, -157.7439117, 0.324, 0.2439024, 0.0124615, -0.1237049, 0.324, -20.6707325, 0.324, -234.7561035, 0.324, -7.5609756, 0.0124615, -0.0229953, 0.324, -170.9146423, 0.324, -341.8902588, 0.324, 105.3048782, 0.0124615, 0.1549248, 0.324, 105.3048782, 0.324, -201.1585388, 0.324, -105.6707306, 0.0124615, -0.0270237, 0.324, 15.9146347, 0.324, -223.5365906, 0.324, -49.2073174, 0.0124615, 0.0515297, 0.324, -92.9878082, 0.324, -226.646347, 0.324, 26.8292694, 0.0124615, 0.033402, 0.324, 21.4024391, 0.324, -399.6951294, 0.324, -178.3536682, , , , , , , , , , , , , , , , , , , , , , 
0.0129808, -0.0384375, 0.3375, -273.9024353, 0.3375, 143.4146423, 0.3375, -135.6707306, 0.0129808, -0.0850996, 0.3375, 81.0975647, 0.3375, 54.8170738, 0.3375, 183.2317047, 0.0129808, -0.0515297, 0.3375, -13.2926836, 0.3375, -196.0975647, 0.3375, -12.6829271, 0.0129808, -0.0256809, 0.3375, -126.646347, 0.3375, -116.5243912, 0.3375, 152.7439117, 0.0129808, 0.1136339, 0.3375, 152.0121918, 0.3375, -214.512207, 0.3375, -138.1097565, 0.0129808, 0.0125887, 0.3375, 16.0365849, 0.3375, -185.8536682, 0.3375, -41.8902435, 0.0129808, 0.033402, 0.3375, -101.3414688, 0.3375, -257.7438965, 0.3375, 25.8536587, 0.0129808, 0.0377661, 0.3375, -46.2195129, 0.3375, -223.9634247, 0.3375, -195.2439117, , , , , , , , , , , , , , , , , , , , , , 
0.0135, -0.0372625, 0.351, -199.4512177, 0.351, 138.7195129, 0.351, -200.7926941, 0.0135, -0.1337758, 0.351, -74.5121994, 0.351, 241.646347, 0.351, 372.7438965, 0.0135, 0.0243381, 0.351, -1.5853659, 0.351, -226.7073212, 0.351, -17.8048782, 0.0135, -0.0260166, 0.351, -143.2926788, 0.351, -7.6219516, 0.351, 178.1097565, 0.0135, 0.0421302, 0.351, 130.9146423, 0.351, -216.2804871, 0.351, -152.6219482, 0.0135, 0.0357519, 0.351, 8.719512, 0.351, -153.4146423, 0.351, -45.1219521, 0.0135, 0.0169528, 0.351, -79.6951218, 0.351, -248.7804871, 0.351, 33.9634171, 0.0135, 0.0411231, 0.351, -95.7317123, 0.351, 45.2439041, 0.351, -175.2439117, , , , , , , , , , , , , , , , , , , , , , 
0.0140192, -0.0344091, 0.3645, -119.7561035, 0.3645, 234.0853729, 0.3645, -227.6829376, 0.0140192, -0.1782559, 0.3645, 12.9878054, 0.3645, 216.9512177, 0.3645, 363.9024353, 0.0140192, 0.0676432, 0.3645, -25.4878063, 0.3645, -170.4878082, 0.3645, -3.2926829, 0.0140192, -0.0243381, 0.3645, -31.9512196, 0.3645, 25.4268303, 0.3645, 202.5, 0.0140192, -0.0506905, 0.3645, 61.0365868, 0.3645, -179.6951294, 0.3645, -135.4268341, 0.0140192, 0.0240024, 0.3645, 5.3658538, 0.3645, -131.8292694, 0.3645, -47.6829262, 0.0140192, 0.0028534, 0.3645, -35.3658562, 0.3645, -221.0975647, 0.3645, 32.9268303, 0.0140192, 0.0431373, 0.3645, -207.8048859, 0.3645, 107.8658524, 0.3645, -145.9146423, , , , , , , , , , , , , , , , , , , , , , 
0.0145385, -0.0317235, 0.378, -79.6951218, 0.378, 151.0365906, 0.378, -238.1707306, 0.0145385, -0.2123293, 0.378, -100.2439041, 0.378, 217.5609741, 0.378, 302.2561035, 0.0145385, 0.0876173, 0.378, -36.0365868, 0.378, -129.2073212, 0.378, 24.6341476, 0.0145385, -0.0229953, 0.378, 44.1463432, 0.378, 15.5487804, 0.378, 236.7073212, 0.0145385, -0.1539178, 0.378, 9.3902445, 0.378, -101.5243912, 0.378, -102.4390259, 0.0145385, 0.0132601, 0.378, -9.3292685, 0.378, -100.3048782, 0.378, -52.6219521, 0.0145385, -0.0068818, 0.378, 0, 0.378, 0, 0.378, 0, 0.0145385, 0.0431373, 0.378, -236.2804871, 0.378, -24.3902435, 0.378, -128.2317047, , , , , , , , , , , , , , , , , , , , , , 
0.0150577, -0.0303807, 0.3915, 22.8048782, 0.3915, -108.9024429, 0.3915, -267.4390259, 0.0150577, -0.2339818, 0.3915, -139.146347, 0.3915, 165.6097565, 0.3915, 246.0975647, 0.0150577, 0.0958419, 0.3915, -17.9878044, 0.3915, -154.2073212, 0.3915, 43.3536606, 0.0150577, -0.018967, 0.3915, -0.1219512, 0.3915, 31.341465, 0.3915, 249.9390259, 0.0150577, -0.2479133, 0.3915, 1.3414634, 0.3915, -89.3292694, 0.3915, -95.4878082, 0.0150577, 0.0238346, 0.3915, -36.5853653, 0.3915, -105.9756088, 0.3915, -49.5121956, 0.0150577, -0.0159457, 0.3915, -14.7560978, 0.3915, -147.3170776, 0.3915, 7.0731707, 0.0150577, 0.0468299, 0.3915, -201.646347, 0.3915, -150.2439117, 0.3915, -119.4512253, , , , , , , , , , , , , , , , , , , , , , 
0.0155769, -0.030045, 0.405, -51.2195129, 0.405, -223.4146423, 0.405, -262.5609741, 0.0155769, -0.2452277, 0.405, -122.0121994, 0.405, -34.8170738, 0.405, 185.3048859, 0.0155769, 0.1012131, 0.405, 7.7439027, 0.405, -150.7317047, 0.405, 42.3780479, 0.0155769, -0.0129244, 0.405, -148.0487823, 0.405, -31.5853672, 0.405, 184.3902435, 0.0155769, -0.300618, 0.405, 22.1951218, 0.405, -124.2682953, 0.405, -99.7561035, 0.0155769, 0.0428016, 0.405, -48.2926826, 0.405, -132.4390259, 0.405, -29.3902454, 0.0155769, -0.0256809, 0.405, -36.8292694, 0.405, -130.5487823, 0.405, 0.4878049, 0.0155769, 0.0542153, 0.405, -137.1341553, 0.405, -101.4634171, 0.405, -206.5853729, , , , , , , , , , , , , , , , , , , , , , 
0.0160962, -0.030045, 0.4185, -45.4878044, 0.4185, -115.5487823, 0.4185, -211.2195129, 0.0160962, -0.2499275, 0.4185, -95, 0.4185, -103.9024429, 0.4185, 197.0731812, 0.0160962, 0.0928206, 0.4185, 16.7682934, 0.4185, -89.6341476, 0.4185, -1.2804878, 0.0160962, -0.0092317, 0.4185, -186.8292694, 0.4185, -48.5365868, 0.4185, 148.4146423, 0.0160962, -0.2979324, 0.4185, 64.8170776, 0.4185, -171.646347, 0.4185, -82.3780518, 0.0160962, 0.0516976, 0.4185, -15.4878054, 0.4185, -137.8048859, 0.4185, -1.3414634, 0.0160962, -0.0364233, 0.4185, -63.4146347, 0.4185, -135.8536682, 0.4185, 6.7073174, 0.0160962, 0.0599222, 0.4185, 5.1219511, 0.4185, -68.2926865, 0.4185, -228.4146423, , , , , , , , , , , , , , , , , , , , , , 
0.0166154, -0.030045, 0.432, 66.4634171, 0.432, 58.841465, 0.432, -192.86586, 0.0166154, -0.2458991, 0.432, -117.0121994, 0.432, -138.2926788, 0.432, 169.4512177, 0.0166154, 0.0674754, 0.432, 10.3658543, 0.432, -62.0121956, 0.432, -23.1707325, 0.0166154, -0.0099031, 0.432, -189.8780518, 0.432, -69.0243912, 0.432, 157.86586, 0.0166154, -0.2662089, 0.432, 75.3048782, 0.432, -124.146347, 0.432, -35.9756088, 0.0166154, 0.0468299, 0.432, 28.0487804, 0.432, -65.6707306, 0.432, 2.7439024, 0.0166154, -0.0463264, 0.432, -80.5487823, 0.432, -110.36586, 0.432, 30, 0.0166154, 0.0642863, 0.432, -64.8780518, 0.432, -27.8658543, 0.432, -224.6951294, , , , , , , , , , , , , , , , , , , , , , 
0.0171346, -0.027863, 0.4455, 3.9024391, 0.4455, 97.9878082, 0.4455, -176.7073212, 0.0171346, -0.2294499, 0.4455, -124.2682953, 0.4455, -80, 0.4455, 153.6585388, 0.0171346, 0.0562295, 0.4455, 19.6951218, 0.4455, -36.9512215, 0.4455, -26.8292694, 0.0171346, -0.0132601, 0.4455, -156.7073212, 0.4455, 13.4146347, 0.4455, 172.86586, 0.0171346, -0.2344854, 0.4455, 25.9146347, 0.4455, 115.0609818, 0.4455, 0.0609756, 0.0171346, 0.0263523, 0.4455, 5.3048782, 0.4455, -9.6341467, 0.4455, -12.0731707, 0.0171346, -0.0538796, 0.4455, -37.6219521, 0.4455, 7.5609756, 0.4455, 48.5975609, 0.0171346, 0.0663005, 0.4455, -97.9878082, 0.4455, -14.1463413, 0.4455, -227.0731812, , , , , , , , , , , , , , , , , , , , , , 
0.0176538, -0.0250095, 0.459, -132.0121918, 0.459, 101.5243912, 0.459, -175.4268341, 0.0176538, -0.19823, 0.459, -134.9390259, 0.459, -20.5487804, 0.459, 169.8780518, 0.0176538, 0.0706645, 0.459, 96.0365906, 0.459, -99.3902435, 0.459, -93.2926865, 0.0176538, -0.0135958, 0.459, -143.1097565, 0.459, 158.3536682, 0.459, 169.0853729, 0.0176538, -0.2119936, 0.459, -64.2073212, 0.459, 334.2073364, 0.459, 36.0975609, 0.0176538, -0.002182, 0.459, -2.1341465, 0.459, -50.0609779, 0.459, 11.9512196, 0.0176538, -0.0605936, 0.459, 31.1585369, 0.459, 153.7804871, 0.459, 20.7926826, 0.0176538, 0.0656291, 0.459, -87.7439041, 0.459, 74.8780518, 0.459, -261.5853577, , , , , , , , , , , , , , , , , , , , , , 
0.0181731, -0.0236667, 0.4725, -212.5609741, 0.4725, 104.2682953, 0.4725, -166.2804871, 0.0181731, -0.1613031, 0.4725, -120.9146347, 0.4725, -42.5609779, 0.4725, 158.4756165, 0.0181731, 0.0891279, 0.4725, 3.0487804, 0.4725, -11.8292685, 0.4725, 111.7682953, 0.0181731, -0.0057069, 0.4725, -161.7073212, 0.4725, 288.7804871, 0.4725, 143.2317047, 0.0181731, -0.1950408, 0.4725, -79.4512177, 0.4725, 194.9390259, 0.4725, 28.0487804, 0.0181731, -0.0142672, 0.4725, -108.9634171, 0.4725, 37.0731697, 0.4725, 45.3048782, 0.0181731, -0.0706645, 0.4725, 14.2073174, 0.4725, 130.3048859, 0.4725, -1.7073171, 0.0181731, 0.0699931, 0.4725, -44.8780479, 0.4725, 160.9756165, 0.4725, -311.3414612, , , , , , , , , , , , , , , , , , , , , , 
0.0186923, -0.0223239, 0.486, -141.9512177, 0.486, 74.1463394, 0.486, -166.8292694, 0.0186923, -0.1243763, 0.486, -72.9878082, 0.486, 66.4024429, 0.486, 137.8048859, 0.0186923, 0.0864424, 0.486, -73.6585388, 0.486, 167.0731812, 0.486, 190.5487823, 0.0186923, -0.0063783, 0.486, -207.6829376, 0.486, 351.8902588, 0.486, 88.6585388, 0.0186923, -0.1764096, 0.486, -40.6097565, 0.486, -55.4268303, 0.486, -26.1585369, 0.0186923, -0.0041962, 0.486, -104.9390259, 0.486, 123.9634171, 0.486, 57.3780518, 0.0186923, -0.0834211, 0.486, 28.1097565, 0.486, 70, 0.486, 14.8780489, 0.0186923, 0.0743572, 0.486, 37.6219521, 0.486, 231.8292694, 0.486, -335.8536682, , , , , , , , , , , , , , , , , , , , , , 
0.0192115, -0.0216526, 0.4995, 59.3292694, 0.4995, 40.4878044, 0.4995, -181.7682953, 0.0192115, -0.0837568, 0.4995, -61.5243912, 0.4995, 101.1585388, 0.4995, 161.4024353, 0.0192115, 0.0562295, 0.4995, -74.6341476, 0.4995, 186.2804871, 0.4995, 122.68293, 0.0192115, -0.0240024, 0.4995, -254.0243988, 0.4995, 323.1097717, 0.4995, 28.1707325, 0.0192115, -0.154757, 0.4995, -22.0731716, 0.4995, -229.6341553, 0.4995, -64.4512177, 0.0192115, 0.0052033, 0.4995, -78.2926865, 0.4995, 113.3536606, 0.4995, -11.8902445, 0.0192115, -0.0961776, 0.4995, 16.8292694, 0.4995, -19.2073174, 0.4995, 57.1951218, 0.0192115, 0.0696574, 0.4995, 104.3902435, 0.4995, 284.512207, 0.4995, -326.4024353, , , , , , , , , , , , , , , , , , , , , , 
0.0197308, -0.0193027, 0.513, 59.6951218, 0.513, 109.3902435, 0.513, -199.3902435, 0.0197308, -0.0354162, 0.513, -83.5975647, 0.513, 113.7195129, 0.513, 205.7317047, 0.0197308, 0.0184634, 0.513, 23.4756107, 0.513, 13.9634151, 0.513, 60.9146347, 0.0197308, -0.0357519, 0.513, -290.0609741, 0.513, 243.4146423, 0.513, -21.2195129, 0.0197308, -0.126894, 0.513, 6.1585369, 0.513, -127.7439041, 0.513, -93.7195129, 0.0197308, 0.0045319, 0.513, -107.1341476, 0.513, 83.8414688, 0.513, -26.7073174, 0.0197308, -0.103563, 0.513, -7.0731707, 0.513, -153.1097565, 0.513, 81.4024429, 0.0197308, 0.0629435, 0.513, 149.3902435, 0.513, 220.5487823, 0.513, -302.5, , , , , , , , , , , , , , , , , , , , , , 
0.02025, -0.0169528, 0.5265, -30.3658543, 0.5265, 135.5487823, 0.5265, -226.646347, 0.02025, 0.0119173, 0.5265, -113.0487823, 0.5265, 86.7682953, 0.5265, 228.3536682, 0.02025, -0.0169528, 0.5265, 39.5121956, 0.5265, -193.2317047, 0.5265, -33.1707306, 0.02025, -0.0310521, 0.5265, -296.7683105, 0.5265, 173.5975647, 0.5265, -60.1219521, 0.02025, -0.0951705, 0.5265, 85.5487823, 0.5265, -87.9878082, 0.5265, -117.7439041, 0.02025, -0.0068818, 0.5265, -2.5609756, 0.5265, -77.4390259, 0.5265, -5.0609756, 0.02025, -0.1062486, 0.5265, -37.6219521, 0.5265, -204.2073212, 0.5265, 76.4634171, 0.02025, 0.0639506, 0.5265, 170.4878082, 0.5265, 177.2561035, 0.5265, -290.3048706, , , , , , , , , , , , , , , , , , , , , , 
0.0207692, -0.0159457, 0.54, -35.1829262, 0.54, 133.9634247, 0.54, -241.5243988, 0.0207692, 0.0498512, 0.54, -102.2561035, 0.54, 48.1097565, 0.54, 207.4390259, 0.0207692, -0.0683146, 0.54, 85.6097565, 0.54, -285.2438965, 0.54, -38.5975609, 0.0207692, -0.0260166, 0.54, -311.7073364, 0.54, 145.2439117, 0.54, -94.6341476, 0.0207692, -0.0642863, 0.54, 95.4268341, 0.54, -45.3048782, 0.54, -144.6951294, 0.0207692, -0.0224918, 0.54, 26.5243912, 0.54, -266.5243835, 0.54, 19.6341476, 0.0207692, -0.1005417, 0.54, -58.4756126, 0.54, -240.1829376, 0.54, 43.4146347, 0.0207692, 0.0632792, 0.54, 218.4756165, 0.54, 99.7561035, 0.54, -271.9512329, , , , , , , , , , , , , , , , , , , , , , 
0.0212885, -0.0176242, 0.5535, 9.3902445, 0.5535, 135.7926788, 0.5535, -248.8414764, 0.0212885, 0.0803998, 0.5535, -104.146347, 0.5535, 44.4512215, 0.5535, 190.7317047, 0.0212885, -0.1223621, 0.5535, 54.8170738, 0.5535, -261.1585388, 0.5535, 19.0853672, 0.0212885, -0.0293736, 0.5535, -331.0975647, 0.5535, 76.8292694, 0.5535, -122.4390259, 0.0212885, -0.033402, 0.5535, 72.8658524, 0.5535, -39.6341476, 0.5535, -152.1951294, 0.0212885, -0.0317235, 0.5535, -8.4146347, 0.5535, -270, 0.5535, 22.2560978, 0.0212885, -0.0864424, 0.5535, -50.5487823, 0.5535, -171.2804871, 0.5535, 36.2195129, 0.0212885, 0.0508583, 0.5535, 281.3414612, 0.5535, 10.5487804, 0.5535, -256.1585388, , , , , , , , , , , , , , , , , , , , , , 
0.0218077, -0.0182956, 0.567, 56.7073174, 0.567, 152.9268341, 0.567, -211.2804871, 0.0218077, 0.1032273, 0.567, -123.3536606, 0.567, 39.4512215, 0.567, 162.3780518, 0.0218077, -0.1176623, 0.567, 5.9146342, 0.567, -138.7804871, 0.567, 46.7073174, 0.0218077, -0.0303807, 0.567, -333.9024353, 0.567, -33.2317085, 0.567, -129.7561035, 0.0218077, -0.0025177, 0.567, 54.4512215, 0.567, -114.2682953, 0.567, -129.5731812, 0.0218077, -0.0276951, 0.567, -26.5853672, 0.567, -161.8902435, 0.567, 4.9390244, 0.0218077, -0.0649577, 0.567, -33.5975609, 0.567, -127.4390259, 0.567, 37.7439041, 0.0218077, 0.0357519, 0.567, 291.0975647, 0.567, -95, 0.567, -236.1585388, , , , , , , , , , , , , , , , , , , , , , 
0.0223269, -0.0193027, 0.5805, 85.9146347, 0.5805, 147.3170776, 0.5805, -160.1829376, 0.0223269, 0.1186694, 0.5805, -128.1097565, 0.5805, 23.2926826, 0.5805, 134.8780518, 0.0223269, -0.0431373, 0.5805, -21.0975609, 0.5805, -18.7195129, 0.5805, 46.341465, 0.0223269, -0.0229953, 0.5805, -327.5609741, 0.5805, -97.1341476, 0.5805, -118.7804871, 0.0223269, 0.0273594, 0.5805, 61.6463432, 0.5805, -184.6341553, 0.5805, -88.7804871, 0.0223269, -0.0171206, 0.5805, -29.6951218, 0.5805, -16.0365849, 0.5805, -0.5487805, 0.0223269, -0.0421302, 0.5805, 0, 0.5805, 0, 0.5805, 0, 0.0223269, 0.0320592, 0.5805, 254.7561035, 0.5805, -109.6341476, 0.5805, -215.0609741, , , , , , , , , , , , , , , , , , , , , , 
0.0228462, -0.0226596, 0.594, 58.1097565, 0.594, 166.646347, 0.594, -143.2317047, 0.0228462, 0.1263905, 0.594, -153.6585388, 0.594, 36.1585388, 0.594, 114.0243912, 0.0228462, 0.0229953, 0.594, -22.6829281, 0.594, 40.6707344, 0.594, 30.6707325, 0.0228462, -0.0132601, 0.594, -315.7926941, 0.594, -98.9634171, 0.594, -103.4756088, 0.0228462, 0.0515297, 0.594, 54.1463432, 0.594, -135.6097565, 0.594, -67.68293, 0.0228462, -0.0193027, 0.594, -35, 0.594, 63.7804909, 0.594, -14.2073174, 0.0228462, -0.0226596, 0.594, -47.0121956, 0.594, -124.0853653, 0.594, 57.9878044, 0.0228462, 0.0387732, 0.594, 220.9146423, 0.594, -61.0365868, 0.594, -206.5853729, , , , , , , , , , , , , , , , , , , , , , 
0.0233654, -0.0271916, 0.6075, 143.1707306, 0.6075, 228.0487823, 0.6075, -154.5121918, 0.0233654, 0.1290761, 0.6075, -173.2926941, 0.6075, 64.3902435, 0.6075, 122.3170776, 0.0233654, 0.040116, 0.6075, -30.8536587, 0.6075, 6.0365853, 0.6075, 12.6219511, 0.0233654, -0.0085603, 0.6075, -265.8536682, 0.6075, -63.9024391, 0.6075, -73.7804871, 0.0233654, 0.0642863, 0.6075, 47.1951218, 0.6075, -31.341465, 0.6075, -58.1707344, 0.0233654, -0.0270237, 0.6075, -13.841464, 0.6075, 32.8658562, 0.6075, -28.6585369, 0.0233654, -0.0058747, 0.6075, -53.5975609, 0.6075, -94.146347, 0.6075, 64.6951218, 0.0233654, 0.043473, 0.6075, 183.7804871, 0.6075, 3.9024391, 0.6075, -200.2439117, , , , , , , , , , , , , , , , , , , , , , 
0.0238846, -0.0297093, 0.621, 195.7317047, 0.621, 150.9756165, 0.621, -182.0121918, 0.0238846, 0.1347829, 0.621, -195.7926941, 0.621, 64.5731735, 0.621, 135.7317047, 0.0238846, 0.0344091, 0.621, -26.0975609, 0.621, -47.6219521, 0.621, 5.4268293, 0.0238846, -0.0062104, 0.621, -204.5731812, 0.621, 44.2682953, 0.621, -74.7560959, 0.0238846, 0.0716716, 0.621, 46.0365868, 0.621, 0.7317073, 0.621, -53.9634171, 0.0238846, -0.0330663, 0.621, 5.1829271, 0.621, -81.9512177, 0.621, -24.5731716, 0.0238846, 0.0105745, 0.621, -51.8292694, 0.621, -69.0853653, 0.621, 62.0121956, 0.0238846, 0.0441444, 0.621, 175.36586, 0.621, 39.2682953, 0.621, -174.8170776, , , , , , , , , , , , , , , , , , , , , , 
0.0244038, -0.0310521, 0.6345, 190.1829376, 0.6345, 39.9390259, 0.6345, -214.4512177, 0.0244038, 0.1508965, 0.6345, -206.3414612, 0.6345, 9.3902445, 0.6345, 125.6097565, 0.0244038, 0.0015106, 0.6345, 5.1219511, 0.6345, -164.4512177, 0.6345, -0.8536586, 0.0244038, -0.0068818, 0.6345, -149.2073212, 0.6345, 113.4146347, 0.6345, -106.5853653, 0.0244038, 0.085771, 0.6345, 54.1463432, 0.6345, -1.1585366, 0.6345, -44.2682953, 0.0244038, -0.0485084, 0.6345, 6.2195125, 0.6345, -172.0731812, 0.6345, -11.341464, 0.0244038, 0.0280308, 0.6345, 0, 0.6345, 0, 0.6345, 0, 0.0244038, 0.0391089, 0.6345, 187.9268341, 0.6345, -0.4268293, 0.6345, -126.1585388, , , , , , , , , , , , , , , , , , , , , , 
0.0249231, -0.0297093, 0.648, 170.9756165, 0.648, 9.5121956, 0.648, -247.5609741, 0.0249231, 0.1730526, 0.648, -236.7682953, 0.648, -13.3536587, 0.648, 112.3170776, 0.0249231, -0.0518654, 0.648, 17.8658543, 0.648, -212.5, 0.648, -0.1219512, 0.0249231, -0.0176242, 0.648, -110.9756088, 0.648, 85.7926865, 0.648, -106.7682953, 0.0249231, 0.0991989, 0.648, 57.9878044, 0.648, -17.560976, 0.648, -37.5, 0.0249231, -0.0740215, 0.648, 5.2439027, 0.648, -197.7439117, 0.648, -13.1097565, 0.0249231, 0.0426337, 0.648, -47.1341476, 0.648, -38.2317085, 0.648, 34.6951218, 0.0249231, 0.0240024, 0.648, 163.1707306, 0.648, -49.3292694, 0.648, -75.1219559, , , , , , , , , , , , , , , , , , , , , , 
0.0254423, -0.0260166, 0.6615, 163.9024353, 0.6615, 49.6951218, 0.6615, -252.9268341, 0.0254423, 0.1963836, 0.6615, -293.23172, 0.6615, 59.6951218, 0.6615, 125, 0.0254423, -0.1116197, 0.6615, 11.219512, 0.6615, -198.7804871, 0.6615, 5.8536587, 0.0254423, -0.0377661, 0.6615, -107.7439041, 0.6615, -40.1829262, 0.6615, -57.7439041, 0.0254423, 0.1008774, 0.6615, 54.0853653, 0.6615, -34.0853653, 0.6615, -53.7195129, 0.0254423, -0.0970169, 0.6615, 1.9512196, 0.6615, -186.9512177, 0.6615, -15.9146347, 0.0254423, 0.0486763, 0.6615, 0, 0.6615, 0, 0.6615, 0, 0.0254423, 0.0028534, 0.6615, 186.4634247, 0.6615, -5.0609756, 0.6615, -20.8536587, , , , , , , , , , , , , , , , , , , , , , 
0.0259615, -0.0243381, 0.675, 177.6829376, 0.675, -43.4756126, 0.675, -179.4512177, 0.0259615, 0.216022, 0.675, -337.5, 0.675, 74.2073212, 0.675, 98.8414688, 0.0259615, -0.1498894, 0.675, 0.5487805, 0.675, -168.5975647, 0.675, 17.0731716, 0.0259615, -0.0565652, 0.675, -147.1951294, 0.675, -287.5, 0.675, -54.9390259, 0.0259615, 0.0961776, 0.675, 56.0975609, 0.675, -65.3658524, 0.675, -83.3536606, 0.0259615, -0.1089342, 0.675, -9.3292685, 0.675, -160.8536682, 0.675, -21.3414631, 0.0259615, 0.0491798, 0.675, -45.5487823, 0.675, -90.5487823, 0.675, 67.68293, 0.0259615, -0.011078, 0.675, 122.4390259, 0.675, -112.7439041, 0.675, -18.9634151, , , , , , , , , , , , , , , , , , , , , , 
0.0264808, -0.0250095, 0.6885, 204.512207, 0.6885, -81.1585388, 0.6885, -139.4512177, 0.0264808, 0.2301213, 0.6885, -244.0853729, 0.6885, -53.9634171, 0.6885, 27.2560978, 0.0264808, -0.1441825, 0.6885, -6.5853658, 0.6885, -123.6585388, 0.6885, 28.841465, 0.0264808, -0.0651255, 0.6885, 12.3170738, 0.6885, -217.9878082, 0.6885, 22.0121956, 0.0264808, 0.0944991, 0.6885, 57.1341476, 0.6885, -110.4268341, 0.6885, -115.4268341, 0.0264808, -0.1025559, 0.6885, -21.8902435, 0.6885, -117.9878082, 0.6885, -23.2926826, 0.0264808, 0.0454871, 0.6885, -37.6829262, 0.6885, -151.8292694, 0.6885, 77.5609741, 0.0264808, -0.0169528, 0.6885, -34.8780479, 0.6885, -250.3048859, 0.6885, 28.9634151, , , , , , , , , , , , , , , , , , , , , , 
0.027, -0.0240024, 0.702, 227.7439117, 0.702, -128.7195129, 0.702, -125.18293, 0.027, 0.2358282, 0.702, -108.1707306, 0.702, -81.2195129, 0.702, 17.9878044, 0.027, -0.0869459, 0.702, -3.3536587, 0.702, -109.4512253, 0.702, 40.0609779, 0.027, -0.0676432, 0.702, 24.6341476, 0.702, -174.146347, 0.702, 57.5609779, 0.027, 0.0874495, 0.702, 45.6707344, 0.702, -140.8536682, 0.702, -137.9878082, 0.027, -0.0814069, 0.702, -34.8170738, 0.702, -95.6707306, 0.702, -17.8048782, 0.027, 0.0407874, 0.702, -31.7682934, 0.702, -191.5853729, 0.702, 77.9268341, 0.027, -0.0250095, 0.702, -145.2439117, 0.702, -226.8902435, 0.702, 52.9878044, , , , , , , , , , , , , , , , , , , , , , 
0.0275192, -0.0216526, 0.7155, 132.1951294, 0.7155, -142.5, 0.7155, -108.7804871, 0.0275192, 0.2361639, 0.7155, -59.6951218, 0.7155, -201.9512177, 0.7155, 7.1341467, 0.0275192, -0.0448157, 0.7155, 1.0365853, 0.7155, -127.0121994, 0.7155, 46.7073174, 0.0275192, -0.0632792, 0.7155, 21.2195129, 0.7155, 37.8048782, 0.7155, -15, 0.0275192, 0.0642863, 0.7155, 34.9390259, 0.7155, -139.5121918, 0.7155, -143.2926788, 0.0275192, -0.0525368, 0.7155, -39.9390259, 0.7155, -106.4634171, 0.7155, -13.0487804, 0.0275192, 0.0374304, 0.7155, -13.3536587, 0.7155, -208.9024506, 0.7155, 73.2926865, 0.0275192, -0.0377661, 0.7155, -61.1585388, 0.7155, -87.1951218, 0.7155, 0.6707317, , , , , , , , , , , , , , , , , , , , , , 
0.0280385, -0.0199741, 0.729, 1.5853659, 0.729, -268.1707458, 0.729, -79.5121994, 0.0280385, 0.2348211, 0.729, -11.4634151, 0.729, -178.5975647, 0.729, -3.2317073, 0.0280385, -0.1065843, 0.729, 1.7682927, 0.729, -159.5731812, 0.729, 48.3536606, 0.0280385, -0.0595865, 0.729, -118.4756088, 0.729, -11.5243902, 0.729, -20.6097565, 0.0280385, 0.0186313, 0.729, 3.9634147, 0.729, -117.4390259, 0.729, -140.9756165, 0.0280385, -0.0340734, 0.729, -40.7317085, 0.729, -145.7317047, 0.729, -15.1219511, 0.0280385, 0.033402, 0.729, 15.8536587, 0.729, -194.3902435, 0.729, 65.6707306, 0.0280385, -0.0491798, 0.729, 111.9512253, 0.729, -57.0121956, 0.729, -59.2682953, , , , , , , , , , , , , , , , , , , , , , 
0.0285577, -0.018967, 0.7425, -66.0365906, 0.7425, -221.2195129, 0.7425, -34.9390259, 0.0285577, 0.2297856, 0.7425, 19.8170738, 0.7425, -241.9512177, 0.7425, 22.1341476, 0.0285577, -0.2573129, 0.7425, 1.0365853, 0.7425, -168.0487823, 0.7425, 56.341465, 0.0285577, -0.061265, 0.7425, -35.6097565, 0.7425, 21.2195129, 0.7425, 4.2073174, 0.0285577, -0.0391089, 0.7425, -25.6707325, 0.7425, -98.1707306, 0.7425, -129.3902435, 0.0285577, -0.0377661, 0.7425, -49.6951218, 0.7425, -154.5731812, 0.7425, -16.7682934, 0.0285577, 0.0271916, 0.7425, 50.1219521, 0.7425, -159.0243988, 0.7425, 41.6463432, 0.0285577, -0.0525368, 0.7425, 19.4512196, 0.7425, 237.9268341, 0.7425, -89.9390259, , , , , , , , , , , , , , , , , , , , , , 
0.0290769, -0.0199741, 0.756, -63.2317085, 0.756, -48.6585388, 0.756, -20.2439022, 0.0290769, 0.219379, 0.756, -34.6341476, 0.756, -230.9146423, 0.756, 45, 0.0290769, -0.3828641, 0.756, -8.1707315, 0.756, -162.4390259, 0.756, 76.0975647, 0.0290769, -0.0632792, 0.756, 32.3780479, 0.756, -72.5, 0.756, -8.3536587, 0.0290769, -0.0881209, 0.756, -41.5243912, 0.756, -70.6097565, 0.756, -110.5487823, 0.0290769, -0.056733, 0.756, -66.5853653, 0.756, -151.1585388, 0.756, -23.2926826, 0.0290769, 0.0236667, 0.756, 55.3048782, 0.756, -115.7926865, 0.756, 20.4878044, 0.0290769, -0.0459907, 0.756, -17.3170738, 0.756, -127.1951218, 0.756, 15.4268293, , , , , , , , , , , , , , , , , , , , , , 
0.0295962, -0.0229953, 0.7695, -48.5365868, 0.7695, 112.2561035, 0.7695, -7.0121951, 0.0295962, 0.2039368, 0.7695, -14.2682934, 0.7695, -7.8658538, 0.7695, 49.6951218, 0.0295962, -0.3680934, 0.7695, -16.6463413, 0.7695, -165, 0.7695, 85.7926865, 0.0295962, -0.0592508, 0.7695, -3.6585367, 0.7695, -91.5853653, 0.7695, -19.0853672, 0.0295962, -0.1008774, 0.7695, -58.0487823, 0.7695, -17.8048782, 0.7695, -96.4024429, 0.0295962, -0.061265, 0.7695, -70, 0.7695, -158.7195129, 0.7695, -27.0121956, 0.0295962, 0.0224918, 0.7695, 49.7560997, 0.7695, -78.1097565, 0.7695, 24.6951218, 0.0295962, -0.0350805, 0.7695, 40.4268303, 0.7695, -107.1341476, 0.7695, -0.9146342, , , , , , , , , , , , , , , , , , , , , , 
0.0301154, -0.0270237, 0.783, -30.1829281, 0.783, 163.9024353, 0.783, -28.3536587, 0.0301154, 0.1864805, 0.783, 5.5487804, 0.783, 210.36586, 0.783, 49.2073174, 0.0301154, -0.2499275, 0.783, -15.6097565, 0.783, -173.1097565, 0.783, 77.2560959, 0.0301154, -0.054551, 0.783, -63.7804909, 0.783, -112.1951218, 0.783, -54.1463432, 0.0301154, -0.0767071, 0.783, -60.3658562, 0.783, 22.9878063, 0.783, -91.7682953, 0.0301154, -0.0461585, 0.783, -61.4634171, 0.783, -159.5731812, 0.783, -26.8902454, 0.0301154, 0.0204776, 0.783, 57.2560997, 0.783, -67.6219559, 0.783, 41.0975609, 0.0301154, -0.0303807, 0.783, 55.2439041, 0.783, -20.7317085, 0.783, -10.1829271, , , , , , , , , , , , , , , , , , , , , , 
0.0306346, -0.0276951, 0.7965, 35.9756088, 0.7965, 145.1829376, 0.7965, -68.0487823, 0.0306346, 0.1713741, 0.7965, -58.2317085, 0.7965, 123.5365906, 0.7965, 44.2073174, 0.0306346, -0.1505608, 0.7965, -17.6219521, 0.7965, -173.9634247, 0.7965, 62.1951218, 0.0306346, -0.0592508, 0.7965, -16.5243912, 0.7965, -43.6585388, 0.7965, -23.4756107, 0.0306346, -0.0464942, 0.7965, -50.8536606, 0.7965, 7.8048782, 0.7965, -91.1585388, 0.0306346, -0.03122, 0.7965, -45.6097565, 0.7965, -158.5975647, 0.7965, -27.6219521, 0.0306346, 0.0125887, 0.7965, 69.9390259, 0.7965, -70.2439041, 0.7965, 56.2804909, 0.0306346, -0.0397803, 0.7965, 6.0975609, 0.7965, 3.1097562, 0.7965, -13.9634151, , , , , , , , , , , , , , , , , , , , , , 
0.0311538, -0.0251774, 0.81, 107.8048782, 0.81, 162.4390259, 0.81, -60.4878044, 0.0311538, 0.1552605, 0.81, -123.5975647, 0.81, 78.5975647, 0.81, 21.8902435, 0.0311538, -0.0847639, 0.81, -22.8048782, 0.81, -176.5853729, 0.81, 50, 0.0311538, -0.0616007, 0.81, 19.5731716, 0.81, 18.780489, 0.81, 6.4634147, 0.0311538, -0.0323949, 0.81, -31.4634151, 0.81, -31.5853672, 0.81, -96.9512253, 0.0311538, -0.0290379, 0.81, -36.2195129, 0.81, -152.5609741, 0.81, -27.8658543, 0.0311538, 0.0018463, 0.81, 77.5, 0.81, -79.6951218, 0.81, 64.6341476, 0.0311538, -0.0555581, 0.81, -11.219512, 0.81, 6.2195125, 0.81, -5.8536587, , , , , , , , , , , , , , , , , , , , , , 
0.0316731, -0.0216526, 0.8235, 104.4512253, 0.8235, 130, 0.8235, 0.7317073, 0.0316731, 0.1334401, 0.8235, -240.9146423, 0.8235, 123.3536606, 0.8235, -41.5243912, 0.0316731, 0.0340734, 0.8235, -21.7682934, 0.8235, -169.0853729, 0.8235, 44.2682953, 0.0316731, -0.0377661, 0.8235, 14.2073174, 0.8235, 52.1341476, 0.8235, -3.2317073, 0.0316731, -0.0339055, 0.8235, -16.3414631, 0.8235, -58.6585388, 0.8235, -106.1585388, 0.0316731, -0.0270237, 0.8235, -25.7926826, 0.8235, -145.4878082, 0.8235, -26.7682934, 0.0316731, -0.008896, 0.8235, 72.1951218, 0.8235, -99.3902435, 0.8235, 60.9756126, 0.0316731, -0.0673075, 0.8235, -1.7073171, 0.8235, 65.8536606, 0.8235, -4.9390244, , , , , , , , , , , , , , , , , , , , , , 
0.0321923, -0.0176242, 0.837, 117.3170776, 0.837, 110.6097565, 0.837, 3.1097562, 0.0321923, 0.0965133, 0.837, -143.0487823, 0.837, 154.9390259, 0.837, -36.7073174, 0.0321923, 0.1623102, 0.837, -17.9268303, 0.837, -157.4390259, 0.837, 32.7439041, 0.0321923, -0.0092317, 0.837, 10.8536587, 0.837, 62.5609779, 0.837, -4.4512196, 0.0321923, -0.0370947, 0.837, -15.1829271, 0.837, -59.3902435, 0.837, -108.9634171, 0.0321923, -0.0109102, 0.837, -22.0121956, 0.837, -132.5609741, 0.837, -27.1951218, 0.0321923, -0.0179599, 0.837, 66.5853653, 0.837, -105.6097565, 0.837, 56.1585388, 0.0321923, -0.072343, 0.837, -5.3658538, 0.837, 69.4512177, 0.837, -10.3658543, , , , , , , , , , , , , , , , , , , , , , 
0.0327115, -0.0139315, 0.8505, 86.7682953, 0.8505, 74.1463394, 0.8505, -34.4512215, 0.0327115, 0.0424659, 0.8505, -56.5853653, 0.8505, -11.4634151, 0.8505, 5.2439027, 0.0327115, 0.2177005, 0.8505, -11.1585369, 0.8505, -142.4390259, 0.8505, 21.6463413, 0.0327115, -0.0191348, 0.8505, 15.9146347, 0.8505, 62.3170738, 0.8505, 10.2439022, 0.0327115, -0.0340734, 0.8505, -22.0121956, 0.8505, -38.2317085, 0.8505, -99.8170776, 0.0327115, 0.0179599, 0.8505, -21.7073174, 0.8505, -112.2561035, 0.8505, -27.1951218, 0.0327115, -0.0250095, 0.8505, 51.5853653, 0.8505, -98.8414688, 0.8505, 47.4390259, 0.0327115, -0.0676432, 0.8505, -26.8292694, 0.8505, 37.8048782, 0.8505, -24.8170738, , , , , , , , , , , , , , , , , , , , , , 
0.0332308, -0.0102388, 0.864, 9.5121956, 0.864, -12.6219511, 0.864, -70.3658524, 0.0332308, -0.0193027, 0.864, -10.4268293, 0.864, -23.4146347, 0.864, 37.0731697, 0.0332308, 0.2151827, 0.864, -9.3902445, 0.864, -120, 0.864, 17.6219521, 0.0332308, -0.051194, 0.864, 13.3536587, 0.864, 45.3048782, 0.864, 8.0487804, 0.0332308, -0.0285344, 0.864, -27.0121956, 0.864, -25.8536587, 0.864, -92.1951218, 0.0332308, 0.0463264, 0.864, -20.8536587, 0.864, -87.9878082, 0.864, -21.7682934, 0.0332308, -0.0310521, 0.864, 41.9512215, 0.864, -81.2804871, 0.864, 43.5365868, 0.0332308, -0.0520333, 0.864, -26.0975609, 0.864, 12.8658543, 0.864, -18.4146347, , , , , , , , , , , , , , , , , , , , , , 
0.03375, -0.0048676, 0.8775, -22.8048782, 0.8775, -43.0487823, 0.8775, -65.1219559, 0.03375, -0.0713359, 0.8775, 9.3292685, 0.8775, -38.5975609, 0.8775, 34.3292694, 0.03375, 0.1515679, 0.8775, 2.5, 0.8775, -103.2317123, 0.8775, 21.6463413, 0.03375, -0.0676432, 0.8775, 19.8170738, 0.8775, 39.6951218, 0.8775, -1.0365853, 0.03375, -0.0260166, 0.8775, -33.1707306, 0.8775, -10.6707315, 0.8775, -71.4024429, 0.03375, 0.0500191, 0.8775, -27.4390259, 0.8775, -70.5487823, 0.8775, -10.6097565, 0.03375, -0.040116, 0.8775, 40, 0.8775, -63.9634171, 0.8775, 42.3170738, 0.03375, -0.0364233, 0.8775, -10.9756098, 0.8775, 26.5243912, 0.8775, -3.5975611, , , , , , , , , , , , , , , , , , , , , , 
0.0342692, -0.0003357, 0.891, -3.7804878, 0.891, -24.4512196, 0.891, -34.6341476, 0.0342692, -0.1092699, 0.891, 0.7926829, 0.891, -47.7439041, 0.891, 26.2195129, 0.0342692, 0.0488441, 0.891, 8.4756098, 0.891, -83.5975647, 0.891, 32.9268303, 0.0342692, -0.0619364, 0.891, 16.5243912, 0.891, 42.9268303, 0.891, 2.1341465, 0.0342692, -0.0273594, 0.891, -34.2682953, 0.891, 5.5487804, 0.891, -48.9634171, 0.0342692, 0.0204776, 0.891, -35.6097565, 0.891, -52.5, 0.891, -0.7926829, 0.0342692, -0.051194, 0.891, 40.5487823, 0.891, -38.7804871, 0.891, 38.4146347, 0.0342692, -0.0327306, 0.891, -8.0487804, 0.891, 71.0365906, 0.891, -9.1463413, , , , , , , , , , , , , , , , , , , , , , 
0.0347885, 0.0015106, 0.9045, 21.5853672, 0.9045, -6.8292685, 0.9045, -7.8658538, 0.0347885, -0.1431754, 0.9045, -20.3658543, 0.9045, -46.0975609, 0.9045, 10.4268293, 0.0347885, -0.0193027, 0.9045, 7.0121951, 0.9045, -55.1219521, 0.9045, 40, 0.0347885, -0.0505226, 0.9045, 11.1585369, 0.9045, 19.2682934, 0.9045, 8.5365858, 0.0347885, -0.0305486, 0.9045, -43.1097565, 0.9045, 30.4268303, 0.9045, -36.1585388, 0.0347885, -0.0219883, 0.9045, -39.0853653, 0.9045, -39.4512215, 0.9045, 3.7195122, 0.0347885, -0.0609293, 0.9045, 0, 0.9045, 0, 0.9045, 0, 0.0347885, -0.049012, 0.9045, -18.2317085, 0.9045, 82.9268341, 0.9045, -24.5731716, , , , , , , , , , , , , , , , , , , , , , 
0.0353077, 0.0025177, 0.918, 40.1829262, 0.918, 20.1829281, 0.918, -8.719512, 0.0353077, -0.1730526, 0.918, -35.4268303, 0.918, -30.4878063, 0.918, 4.5121951, 0.0353077, -0.042298, 0.918, -4.6341462, 0.918, -22.0121956, 0.918, 43.6585388, 0.0353077, -0.0485084, 0.918, 4.7560978, 0.918, -11.5853662, 0.918, 10.6707315, 0.0353077, -0.0256809, 0.918, -56.5853653, 0.918, 40.0609779, 0.918, -30.3658543, 0.0353077, -0.0552224, 0.918, -37.6219521, 0.918, -26.280489, 0.918, -2.9268293, 0.0353077, -0.0669718, 0.918, 38.7804871, 0.918, 10.1219511, 0.918, 21.3414631, 0.0353077, -0.0753643, 0.918, -22.2560978, 0.918, 40.1219521, 0.918, -27.3170738, , , , , , , , , , , , , , , , , , , , , , 
0.0358269, 0.0035248, 0.9315, 45.2439041, 0.9315, 20.7926826, 0.9315, -31.4024391, 0.0358269, -0.1928588, 0.9315, -36.2804871, 0.9315, 6.9512196, 0.9315, 8.719512, 0.0358269, -0.0344091, 0.9315, -22.3170738, 0.9315, -13.7195129, 0.9315, 46.7073174, 0.0358269, -0.064622, 0.9315, -0.7926829, 0.9315, -35.0609779, 0.9315, 9.6341467, 0.0358269, -0.0135958, 0.9315, -68.0487823, 0.9315, 32.4390259, 0.9315, -24.6341476, 0.0358269, -0.0555581, 0.9315, -36.0365868, 0.9315, -18.2926826, 0.9315, -16.7073174, 0.0358269, -0.0679789, 0.9315, 34.8780479, 0.9315, 19.4512196, 0.9315, 11.7682934, 0.0358269, -0.0908064, 0.9315, -13.9024391, 0.9315, -29.5731716, 0.9315, -20.1219521, , , , , , , , , , , , , , , , , , , , , , 
0.0363462, 0.0058747, 0.945, 33.2317085, 0.945, 31.7073174, 0.945, -47.3780518, 0.0363462, -0.2024262, 0.945, -48.1097565, 0.945, 35.0609779, 0.945, 17.0121956, 0.0363462, -0.0243381, 0.945, -35.3658562, 0.945, -35.1219521, 0.945, 41.7073174, 0.0363462, -0.085771, 0.945, 2.6829269, 0.945, -33.1707306, 0.945, 14.3902445, 0.0363462, -0.0031891, 0.945, -71.2195129, 0.945, 22.3780499, 0.945, -16.1585369, 0.0363462, -0.0392767, 0.945, -29.3292694, 0.945, -22.1341476, 0.945, -29.3902454, 0.0363462, -0.0652934, 0.945, 29.2073174, 0.945, 22.560976, 0.945, 3.7195122, 0.0363462, -0.0861067, 0.945, -11.4024391, 0.945, -54.9390259, 0.945, -7.9878049, , , , , , , , , , , , , , , , , , , , , , 
0.0368654, 0.0105745, 0.9585, 19.6341476, 0.9585, 51.5243912, 0.9585, -48.9634171, 0.0368654, -0.2083009, 0.9585, -75.5487823, 0.9585, 32.5609779, 0.9585, 20.8536587, 0.0368654, -0.0208133, 0.9585, -36.4634171, 0.9585, -71.4024429, 0.9585, 26.280489, 0.0368654, -0.0562295, 0.9585, 8.1707315, 0.9585, -29.6951218, 0.9585, 15.2439032, 0.0368654, 0.0031891, 0.9585, -68.9634171, 0.9585, 11.9512196, 0.9585, -8.780488, 0.0368654, -0.0340734, 0.9585, -25.2439022, 0.9585, -37.0121956, 0.9585, -33.4756088, 0.0368654, -0.06009, 0.9585, 24.1463413, 0.9585, 19.4512196, 0.9585, -2.0121951, 0.0368654, -0.0664683, 0.9585, -18.7195129, 0.9585, -49.2682953, 0.9585, 2.804878, , , , , , , , , , , , , , , , , , , , , , 
0.0373846, 0.0146029, 0.972, 27.0731716, 0.972, 55.7317085, 0.972, -45.9146347, 0.0373846, -0.2130007, 0.972, -91.2195129, 0.972, 21.3414631, 0.972, 23.9024391, 0.0373846, -0.0229953, 0.972, -28.5365868, 0.972, -92.3780518, 0.972, 9.9390249, 0.0373846, 0.018967, 0.972, 20, 0.972, -11.8292685, 0.972, 13.2317076, 0.0373846, 0.0152743, 0.972, -60.3048782, 0.972, 2.9268293, 0.972, -4.0243902, 0.0373846, -0.033402, 0.972, -13.6585369, 0.972, -47.7439041, 0.972, -37.4390259, 0.0373846, -0.0485084, 0.972, 20.8536587, 0.972, 13.4146347, 0.972, -7.1341467, 0.0373846, -0.0548867, 0.972, -22.0121956, 0.972, -21.6463413, 0.972, 4.7560978, , , , , , , , , , , , , , , , , , , , , , 
0.0379038, 0.0166171, 0.9855, 46.0975609, 0.9855, 46.341465, 0.9855, -39.5731735, 0.0379038, -0.2230716, 0.9855, -85.6097565, 0.9855, 15.3048782, 0.9855, 23.9024391, 0.0379038, 0.0011749, 0.9855, -12.560976, 0.9855, -116.7073212, 0.9855, -5.4878049, 0.0379038, 0.0605936, 0.9855, 26.280489, 0.9855, 1.402439, 0.9855, 9.0853662, 0.0379038, 0.0292058, 0.9855, -43.7804871, 0.9855, -7.1341467, 0.9855, -1.5243902, 0.0379038, -0.0058747, 0.9855, -5, 0.9855, -46.8292694, 0.9855, -35, 0.0379038, -0.0293736, 0.9855, 17.6219521, 0.9855, 9.8780489, 0.9855, -11.4024391, 0.0379038, -0.0676432, 0.9855, -23.4756107, 0.9855, -1.7073171, 0.9855, 2.3780489, , , , , , , , , , , , , , , , , , , , , , 
0.0384231, 0.0162814, 0.999, 49.1463432, 0.999, 38.5365868, 0.999, -35.9756088, 0.0384231, -0.2418708, 0.999, -64.0853653, 0.999, 20.1829281, 0.999, 16.7682934, 0.0384231, 0.0553902, 0.999, -13.2926836, 0.999, -106.4634171, 0.999, -13.2926836, 0.0384231, 0.0515297, 0.999, 30.4268303, 0.999, 11.8292685, 0.999, 8.841464, 0.0384231, 0.0337377, 0.999, -22.2560978, 0.999, -17.6219521, 0.999, 0.6707317, 0.0384231, 0.0493477, 0.999, 3.7195122, 0.999, -55, 0.999, -31.8292694, 0.0384231, -0.0082246, 0.999, 11.1585369, 0.999, 8.1707315, 0.999, -11.280488, 0.0384231, -0.0788891, 0.999, -28.4756107, 0.999, 23.4146347, 0.999, -2.8658538, , , , , , , , , , , , , , , , , , , , , , 
0.0389423, 0.0152743, 1.0125, 41.2804871, 1.0125, 25.4878063, 1.0125, -30.8536587, 0.0389423, -0.2573129, 1.0125, -46.2804871, 1.0125, 17.3780499, 1.0125, 7.4390244, 0.0389423, 0.072343, 1.0125, -14.5121956, 1.0125, -82.8658524, 1.0125, -13.2317076, 0.0389423, 0.0146029, 1.0125, 33.841465, 1.0125, 26.3414631, 1.0125, 9.7560978, 0.0389423, 0.0350805, 1.0125, -0.7926829, 1.0125, -15.3658543, 1.0125, 3.9634147, 0.0389423, 0.0924849, 1.0125, 12.5, 1.0125, -64.5731735, 1.0125, -32.4390259, 0.0389423, 0.0060426, 1.0125, 0.7317073, 1.0125, 4.6951222, 1.0125, -7.3170733, 0.0389423, -0.0740215, 1.0125, -28.841465, 1.0125, 38.841465, 1.0125, -1.3414634, , , , , , , , , , , , , , , , , , , , , , 
0.0394615, 0.0129244, 1.026, 40.3048782, 1.026, 16.9512196, 1.026, -28.6585369, 0.0394615, -0.2559701, 1.026, -47.0731735, 1.026, -3.4146342, 1.026, 3.1707318, 0.0394615, 0.1085985, 1.026, -21.4024391, 1.026, -85.7317123, 1.026, -17.560976, 0.0394615, -0.0058747, 1.026, 35.4878044, 1.026, 37.1341476, 1.026, 13.5975609, 0.0394615, 0.0417945, 1.026, 5.5487804, 1.026, -7.0731707, 1.026, 5.4268293, 0.0394615, 0.0911421, 1.026, 20.6097565, 1.026, -47.6829262, 1.026, -37.2560997, 0.0394615, 0.0109102, 1.026, -13.2926836, 1.026, -5.670732, 1.026, -5, 0.0394615, -0.0696574, 1.026, -30.2439022, 1.026, 42.3170738, 1.026, 0.6097561, , , , , , , , , , , , , , , , , , , , , , 
0.0399808, 0.0124208, 1.0395, 52.1951218, 1.0395, 14.5121956, 1.0395, -31.5243912, 0.0399808, -0.2368353, 1.0395, -58.6585388, 1.0395, -4.8780489, 1.0395, 4.1463413, 0.0399808, 0.2257572, 1.0395, -42.9878044, 1.0395, -54.8170738, 1.0395, -14.6341467, 0.0399808, -0.0005035, 1.0395, 32.7439041, 1.0395, 32.5609779, 1.0395, 15.4268293, 0.0399808, 0.0532082, 1.0395, 4.8170733, 1.0395, 3.7195122, 1.0395, 5.8536587, 0.0399808, 0.0619364, 1.0395, 18.4756107, 1.0395, -15.6707325, 1.0395, -44.8780479, 0.0399808, 0.0099031, 1.0395, -26.9512196, 1.0395, -29.3902454, 1.0395, -6.3414636, 0.0399808, -0.0681468, 1.0395, -29.4512196, 1.0395, 32.9268303, 1.0395, -1.6463414, , , , , , , , , , , , , , , , , , , , , , 
0.0405, 0.0105745, 1.053, 55.7317085, 1.053, 16.2195129, 1.053, -39.5731735, 0.0405, -0.2123293, 1.053, -65.9146347, 1.053, -3.1707318, 1.053, 3.9024391, 0.0405, 0.290547, 1.053, -69.6341476, 1.053, -17.9878044, 1.053, -0.1219512, 0.0405, -0.0085603, 1.053, 26.4024391, 1.053, 5.670732, 1.053, 10.9146347, 0.0405, 0.0599222, 1.053, -4.6341462, 1.053, -16.1585369, 1.053, 3.2317073, 0.0405, 0.0260166, 1.053, 15.7317076, 1.053, 5.1829271, 1.053, -48.9634171, 0.0405, 0.0078889, 1.053, -31.2195129, 1.053, -44.0853653, 1.053, -8.4146347, 0.0405, -0.057908, 1.053, -24.5731716, 1.053, 12.3170738, 1.053, -0.6707317, , , , , , , , , , , , , , , , , , , , , , 
0.0410192, 0.0085603, 1.0665, 50.3048782, 1.0665, 4.5121951, 1.0665, -45.1219521, 0.0410192, -0.1884947, 1.0665, -73.5365906, 1.0665, -5.3048782, 1.0665, 0.9756098, 0.0410192, 0.2156863, 1.0665, -76.4634171, 1.0665, -9.6951218, 1.0665, 9.2073174, 0.0410192, -0.0283665, 1.0665, 20.4878044, 1.0665, -27.1951218, 1.0665, 9.3292685, 0.0410192, 0.0555581, 1.0665, -2.3170731, 1.0665, -43.3536606, 1.0665, 1.6463414, 0.0410192, -0.0119173, 1.0665, 7.5, 1.0665, 26.4634151, 1.0665, -46.341465, 0.0410192, 0.0077211, 1.0665, 0, 1.0665, 0, 1.0665, 0, 0.0410192, -0.0407874, 1.0665, -23.2926826, 1.0665, -6.2195125, 1.0665, 2.804878, , , , , , , , , , , , , , , , , , , , , , 
0.0415385, 0.0085603, 1.08, 49.8780518, 1.08, -8.719512, 1.08, -42.0731735, 0.0415385, -0.1701991, 1.08, -73.5975647, 1.08, -12.2560978, 1.08, -1.2195122, 0.0415385, 0.1166552, 1.08, -56.5243912, 1.08, -24.2682934, 1.08, -0.7317073, 0.0415385, -0.0345769, 1.08, 16.4634151, 1.08, -52.9268303, 1.08, 13.2926836, 0.0415385, 0.0424659, 1.08, 5.4268293, 1.08, -45.4268303, 1.08, 4.8170733, 0.0415385, -0.0381018, 1.08, 10.1829271, 1.08, 17.1951218, 1.08, -35.6707344, 0.0415385, 0.0070497, 1.08, 0, 1.08, 0, 1.08, 0, 0.0415385, -0.0340734, 1.08, -25.9756107, 1.08, -29.7560978, 1.08, 2.8658538, , , , , , , , , , , , , , , , , , , , , , 
0.0420577, 0.0078889, 1.0935, 51.0365868, 1.0935, -13.5975609, 1.0935, -35.7317085, 0.0420577, -0.1609674, 1.0935, -70.4878082, 1.0935, -19.8170738, 1.0935, -2.9878049, 0.0420577, 0.0688182, 1.0935, -36.2804871, 1.0935, -28.2926826, 1.0935, -21.3414631, 0.0420577, -0.0270237, 1.0935, 14.8780489, 1.0935, -58.9634171, 1.0935, 18.7195129, 0.0420577, 0.0250095, 1.0935, 15.5487804, 1.0935, -35.9146347, 1.0935, 13.6585369, 0.0420577, -0.0552224, 1.0935, 24.5731716, 1.0935, -7.8048782, 1.0935, -30.1219521, 0.0420577, 0.0038605, 1.0935, 0, 1.0935, 0, 1.0935, 0, 0.0420577, -0.0419623, 1.0935, -27.1951218, 1.0935, -37.5609779, 1.0935, -0.6707317, , , , , , , , , , , , , , , , , , , , , , 
0.0425769, 0.0095674, 1.107, 43.9634171, 1.107, -11.8292685, 1.107, -30.1829281, 0.0425769, -0.1576104, 1.107, -58.9024391, 1.107, -19.4512196, 1.107, -6.6463418, 0.0425769, 0.0182956, 1.107, -33.2926826, 1.107, -19.8780499, 1.107, -35.3048782, 0.0425769, -0.0031891, 1.107, 15.6707325, 1.107, -41.341465, 1.107, 16.5243912, 0.0425769, 0.0159457, 1.107, 33.1097565, 1.107, -15.5487804, 1.107, 25.060976, 0.0425769, -0.0619364, 1.107, 33.4756088, 1.107, -20.7317085, 1.107, -30.9756107, 0.0425769, 0.002182, 1.107, 0, 1.107, 0, 1.107, 0, 0.0425769, -0.0505226, 1.107, -25.1829281, 1.107, -28.4756107, 1.107, -3.9024391, , , , , , , , , , , , , , , , , , , , , , 
0.0430962, 0.0112459, 1.1205, 27.9268303, 1.1205, 0.7926829, 1.1205, -25.7317085, 0.0430962, -0.1592889, 1.1205, -44.6341476, 1.1205, -15.060976, 1.1205, -9.1463413, 0.0430962, -0.0313878, 1.1205, -48.4756126, 1.1205, -28.4756107, 1.1205, -42.4390259, 0.0430962, 0.0213169, 1.1205, 18.0487804, 1.1205, -1.8292683, 1.1205, 5.3658538, 0.0430962, 0.0199741, 1.1205, 46.5853653, 1.1205, 7.8658538, 1.1205, 28.4146347, 0.0430962, -0.0364233, 1.1205, 50.6707344, 1.1205, -50.7926826, 1.1205, -37.8048782, 0.0430962, 0.0031891, 1.1205, 0, 1.1205, 0, 1.1205, 0, 0.0430962, -0.0475013, 1.1205, -15.9756098, 1.1205, 4.0243902, 1.1205, -3.7195122, , , , , , , , , , , , , , , , , , , , , , 
0.0436154, 0.0099031, 1.134, 12.9268293, 1.134, 7.0731707, 1.134, -18.9024391, 0.0436154, -0.1619745, 1.134, -32.7439041, 1.134, -6.2195125, 1.134, -8.5975609, 0.0436154, -0.0463264, 1.134, -47.7439041, 1.134, -77.6219559, 1.134, -50.5487823, 0.0436154, 0.0099031, 1.134, 19.939024, 1.134, 20.6097565, 1.134, -0.4268293, 0.0436154, 0.0240024, 1.134, 48.4146347, 1.134, 10.7317076, 1.134, 21.8902435, 0.0436154, 0.0112459, 1.134, 60.0609779, 1.134, -61.6463432, 1.134, -47.6219521, 0.0436154, 0.0005035, 1.134, 0, 1.134, 0, 1.134, 0, 0.0436154, -0.0498512, 1.134, -12.8658543, 1.134, 23.8414631, 1.134, -4.1463413, , , , , , , , , , , , , , , , , , , , , , 
0.0441346, 0.0072175, 1.1475, 7.0731707, 1.1475, 9.4512196, 1.1475, -15.6097565, 0.0441346, -0.1619745, 1.1475, -22.2560978, 1.1475, 2.5609756, 1.1475, -1.8292683, 0.0441346, -0.0411231, 1.1475, -58.1707344, 1.1475, -86.8902435, 1.1475, -47.5609779, 0.0441346, -0.0105745, 1.1475, 20.060976, 1.1475, 49.6951218, 1.1475, -7.4390244, 0.0441346, 0.023331, 1.1475, 54.3292694, 1.1475, -6.5853658, 1.1475, 16.0975609, 0.0441346, 0.0203098, 1.1475, 53.4146347, 1.1475, -42.1951218, 1.1475, -57.1951218, 0.0441346, -0.0125887, 1.1475, 0, 1.1475, 0, 1.1475, 0, 0.0441346, -0.0642863, 1.1475, -5.1829271, 1.1475, 46.0365868, 1.1475, -6.3414636, , , , , , , , , , , , , , , , , , , , , , 
0.0446538, 0.0035248, 1.161, -3.2317073, 1.161, 10.1219511, 1.161, -9.7560978, 0.0446538, -0.1579461, 1.161, -12.6829271, 1.161, 4.6951222, 1.161, 4.8170733, 0.0446538, -0.0453193, 1.161, -67.2560959, 1.161, -52.0731735, 1.161, -39.8170738, 0.0446538, -0.018967, 1.161, 15.2439032, 1.161, 52.8048782, 1.161, -9.3902445, 0.0446538, 0.0182956, 1.161, 57.7439041, 1.161, -22.6219521, 1.161, 18.5365849, 0.0446538, -0.0068818, 1.161, 46.0975609, 1.161, -4.7560978, 1.161, -59.2682953, 0.0446538, -0.0325628, 1.161, -71.4634171, 1.161, -9.0853662, 1.161, -6.0975609, 0.0446538, -0.0767071, 1.161, -0.1219512, 1.161, 43.4756126, 1.161, -9.1463413, , , , , , , , , , , , , , , , , , , , , , 
0.0451731, 0.0005035, 1.1745, -12.1951218, 1.1745, 11.4634151, 1.1745, -3.2317073, 0.0451731, -0.1542535, 1.1745, -5.1829271, 1.1745, -1.2804878, 1.1745, 4.9390244, 0.0451731, -0.0548867, 1.1745, -73.5365906, 1.1745, -38.5975609, 1.1745, -41.2195129, 0.0451731, -0.0350805, 1.1745, 8.3536587, 1.1745, 30.7926846, 1.1745, -8.9024391, 0.0451731, 0.0097353, 1.1745, 60.9146347, 1.1745, -32.0731697, 1.1745, 26.7073174, 0.0451731, -0.0184634, 1.1745, 48.4146347, 1.1745, 17.9878044, 1.1745, -60.8536606, 0.0451731, -0.0513619, 1.1745, -81.7682953, 1.1745, -27.2560978, 1.1745, -9.8170738, 0.0451731, -0.0793927, 1.1745, 2.5, 1.1745, 21.7073174, 1.1745, -10.4268293, , , , , , , , , , , , , , , , , , , , , , 
0.0456923, -0.0028534, 1.188, -16.2195129, 1.188, 3.7804878, 1.188, 1.7682927, 0.0456923, -0.1455253, 1.188, 4.0853658, 1.188, -8.6585369, 1.188, 0.0609756, 0.0456923, -0.012253, 1.188, -80.9146347, 1.188, -23.6585369, 1.188, -47.8658562, 0.0456923, -0.0451514, 1.188, 1.2195122, 1.188, 1.0365853, 1.188, -11.341464, 0.0456923, -0.0045319, 1.188, 65.3048782, 1.188, -31.8902454, 1.188, 30.1829281, 0.0456923, 0.0028534, 1.188, 54.1463432, 1.188, 26.4024391, 1.188, -63.9634171, 0.0456923, -0.0632792, 1.188, 0, 1.188, 0, 1.188, 0, 0.0456923, -0.0699931, 1.188, 6.890244, 1.188, -0.7926829, 1.188, -8.6585369, , , , , , , , , , , , , , , , , , , , , , 
0.0462115, -0.0095674, 1.2015, -16.7682934, 1.2015, -5.3658538, 1.2015, 4.9390244, 0.0462115, -0.1257191, 1.2015, 13.9634151, 1.2015, -18.1707325, 1.2015, -6.4024391, 0.0462115, 0.0708324, 1.2015, -78.4756088, 1.2015, -18.7195129, 1.2015, -51.341465, 0.0462115, -0.0280308, 1.2015, -3.7804878, 1.2015, -13.6585369, 1.2015, -15.1219511, 0.0462115, -0.0243381, 1.2015, 78.0487823, 1.2015, -32.8658562, 1.2015, 32.3780479, 0.0462115, 0.0332341, 1.2015, 55.5487823, 1.2015, 31.8292694, 1.2015, -59.3292694, 0.0462115, -0.0710002, 1.2015, 0, 1.2015, 0, 1.2015, 0, 0.0462115, -0.061265, 1.2015, 16.0975609, 1.2015, -14.8780489, 1.2015, -6.5243902, , , , , , , , , , , , , , , , , , , , , , 
0.0467308, -0.0149386, 1.215, -18.4146347, 1.215, -18.1097565, 1.215, 7.8658538, 0.0467308, -0.0978561, 1.215, 20.9146347, 1.215, -27.3170738, 1.215, -11.4634151, 0.0467308, 0.1233692, 1.215, -45.4878044, 1.215, -30.9146347, 1.215, -53.3536606, 0.0467308, -0.0041962, 1.215, -5.1219511, 1.215, -14.8170738, 1.215, -17.560976, 0.0467308, -0.0417945, 1.215, 87.1341476, 1.215, -41.9512215, 1.215, 29.3902454, 0.0467308, 0.040116, 1.215, 38.0487823, 1.215, 4.9390244, 1.215, -38.7804871, 0.0467308, -0.0708324, 1.215, 0, 1.215, 0, 1.215, 0, 0.0467308, -0.0679789, 1.215, 18.1097565, 1.215, -11.8902445, 1.215, -5.9146342, , , , , , , , , , , , , , , , , , , , , , 
0.04725, -0.0204776, 1.2285, -22.5, 1.2285, -29.0853672, 1.2285, 7.9878049, 0.04725, -0.0699931, 1.2285, 22.0731716, 1.2285, -32.9878044, 1.2285, -13.2926836, 0.04725, 0.1408255, 1.2285, 3.1097562, 1.2285, -70.3658524, 1.2285, -25.4878063, 0.04725, 0.0062104, 1.2285, -4.5731707, 1.2285, -7.2560978, 1.2285, -18.0487804, 0.04725, -0.0491798, 1.2285, 88.9634171, 1.2285, -49.9390259, 1.2285, 21.8902435, 0.04725, 0.0347448, 1.2285, 2.0121951, 1.2285, -73.1707306, 1.2285, -8.2317076, 0.04725, -0.0595865, 1.2285, 0, 1.2285, 0, 1.2285, 0, 0.04725, -0.0777142, 1.2285, 17.2560978, 1.2285, -6.1585369, 1.2285, -6.4024391, , , , , , , , , , , , , , , , , , , , , , 
0.0477692, -0.0280308, 1.242, -24.7560978, 1.242, -38.9024391, 1.242, 4.5121951, 0.0477692, -0.0463264, 1.242, 23.9024391, 1.242, -45.7317085, 1.242, -14.6951227, 0.0477692, 0.115816, 1.242, 21.1585369, 1.242, -73.6585388, 1.242, 22.6829281, 0.0477692, 0.0132601, 1.242, -4.7560978, 1.242, -14.4512196, 1.242, -18.1097565, 0.0477692, -0.0498512, 1.242, 85.1219559, 1.242, -66.2195129, 1.242, 7.8658538, 0.0477692, 0.0258488, 1.242, -20.7926826, 1.242, -118.9024429, 1.242, 11.280488, 0.0477692, -0.0438087, 1.242, 0, 1.242, 0, 1.242, 0, 0.0477692, -0.0854353, 1.242, 14.7560978, 1.242, -1.097561, 1.242, -6.9512196, , , , , , , , , , , , , , , , , , , , , , 
0.0482885, -0.0339055, 1.2555, -25.3658543, 1.2555, -48.9634171, 1.2555, -0.9756098, 0.0482885, -0.0250095, 1.2555, 20.7926826, 1.2555, -57.4390259, 1.2555, -11.219512, 0.0482885, 0.0464942, 1.2555, 5.609756, 1.2555, -67.1951218, 1.2555, 36.0975609, 0.0482885, 0.0280308, 1.2555, -3.2317073, 1.2555, -27.9268303, 1.2555, -12.7439032, 0.0482885, -0.0438087, 1.2555, 83.8414688, 1.2555, -99.4512253, 1.2555, -6.1585369, 0.0482885, 0.0085603, 1.2555, -18.2317085, 1.2555, -127.3170776, 1.2555, 9.7560978, 0.0482885, -0.0327306, 1.2555, -92.3170776, 1.2555, -96.7682953, 1.2555, -12.3780489, 0.0482885, -0.0887922, 1.2555, 10.2439022, 1.2555, -25.5487804, 1.2555, -5.7317076, , , , , , , , , , , , , , , , , , , , , , 
0.0488077, -0.0377661, 1.269, -22.3170738, 1.269, -65.7926865, 1.269, -5.3048782, 0.0488077, 0.0005035, 1.269, 17.560976, 1.269, -72.2560959, 1.269, -9.0243902, 0.0488077, -0.0283665, 1.269, -22.7439022, 1.269, -36.6463432, 1.269, -6.5243902, 0.0488077, 0.0280308, 1.269, -1.4634147, 1.269, -47.0121956, 1.269, -8.2926826, 0.0488077, -0.0381018, 1.269, 89.146347, 1.269, -121.2804871, 1.269, -15.7926836, 0.0488077, -0.0072175, 1.269, 13.5365858, 1.269, -75.9146347, 1.269, -16.1585369, 0.0488077, -0.0270237, 1.269, -102.5, 1.269, -135.36586, 1.269, -9.6341467, 0.0488077, -0.0782177, 1.269, 4.6341462, 1.269, -47.1951218, 1.269, -2.4390244, , , , , , , , , , , , , , , , , , , , , , 
0.0493269, -0.040116, 1.2825, -17.6829281, 1.2825, -74.7560959, 1.2825, -10.1829271, 0.0493269, 0.0381018, 1.2825, 11.4634151, 1.2825, -82.3780518, 1.2825, -6.8292685, 0.0493269, -0.0753643, 1.2825, -63.5365868, 1.2825, -48.5975609, 1.2825, -62.8658562, 0.0493269, 0.0219883, 1.2825, 0.1829268, 1.2825, -44.2073174, 1.2825, -9.4512196, 0.0493269, -0.0417945, 1.2825, 96.5243912, 1.2825, -117.0731735, 1.2825, -19.4512196, 0.0493269, -0.0129244, 1.2825, 55.4878044, 1.2825, -12.8658543, 1.2825, -59.4512215, 0.0493269, -0.0196384, 1.2825, -108.1707306, 1.2825, -135, 1.2825, -6.890244, 0.0493269, -0.0669718, 1.2825, 6.890244, 1.2825, -46.9512215, 1.2825, 0.6097561, , , , , , , , , , , , , , , , , , , , , , 
0.0498462, -0.0406195, 1.296, -14.5731707, 1.296, -82.9878082, 1.296, -14.2682934, 0.0498462, 0.0897993, 1.296, 0, 1.296, 0, 1.296, 0, 0.0498462, -0.0938277, 1.296, -81.0365906, 1.296, -56.0365868, 1.296, -89.3292694, 0.0498462, 0.0125887, 1.296, 0, 1.296, 0, 1.296, 0, 0.0498462, -0.0622721, 1.296, 97.1951218, 1.296, -102.1341476, 1.296, -18.8414631, 0.0498462, -0.012253, 1.296, 79.3902435, 1.296, 39.8170738, 1.296, -78.7195129, 0.0498462, -0.0119173, 1.296, -111.4634171, 1.296, -112.3170776, 1.296, -2.6219513, 0.0498462, -0.0716716, 1.296, 5.1219511, 1.296, -39.3292694, 1.296, 0.9756098, , , , , , , , , , , , , , , , , , , , , , 
0.0503654, -0.0419623, 1.3095, -13.3536587, 1.3095, -86.1585388, 1.3095, -15.2439032, 0.0503654, 0.1468681, 1.3095, 3.2317073, 1.3095, -92.9268341, 1.3095, -12.560976, 0.0503654, -0.093492, 1.3095, -64.8170776, 1.3095, -21.7073174, 1.3095, -85, 0.0503654, -0.011078, 1.3095, 6.4024391, 1.3095, -31.5243912, 1.3095, -8.0487804, 0.0503654, -0.0904707, 1.3095, 87.6219559, 1.3095, -89.2073212, 1.3095, -17.439024, 0.0503654, -0.0203098, 1.3095, 79.6341476, 1.3095, 35.6097565, 1.3095, -68.3536606, 0.0503654, -0.0041962, 1.3095, -95.6707306, 1.3095, -95.6707306, 1.3095, -0.0609756, 0.0503654, -0.0827497, 1.3095, -1.7682927, 1.3095, -32.9878044, 1.3095, 1.097561, , , , , , , , , , , , , , , , , , , , , , 
0.0508846, -0.0468299, 1.323, -10.3048782, 1.323, -93.6585388, 1.323, -15.4878054, 0.0508846, 0.1945373, 1.323, 4.390244, 1.323, -100.0609818, 1.323, -13.0487804, 0.0508846, -0.0773785, 1.323, -54.6951218, 1.323, -13.1097565, 1.323, -55.9146347, 0.0508846, -0.0327306, 1.323, 9.1463413, 1.323, -34.6341476, 1.323, -5.609756, 0.0508846, -0.1116197, 1.323, 69.2073212, 1.323, -69.4512177, 1.323, -16.5853653, 0.0508846, -0.0399481, 1.323, 64.3902435, 1.323, -3.9634147, 1.323, -51.2804909, 0.0508846, 0.0038605, 1.323, -76.5243912, 1.323, -73.6585388, 1.323, 3.5365853, 0.0508846, -0.0877852, 1.323, -5.9146342, 1.323, -32.9268303, 1.323, 1.7073171, , , , , , , , , , , , , , , , , , , , , , 
0.0514038, -0.0515297, 1.3365, -11.219512, 1.3365, -97.9268341, 1.3365, -15.7317076, 0.0514038, 0.2252537, 1.3365, 6.6463418, 1.3365, -106.7682953, 1.3365, -10.6707315, 0.0514038, -0.0565652, 1.3365, -42.3170738, 1.3365, -54.1463432, 1.3365, -18.9634151, 0.0514038, -0.0391089, 1.3365, 9.2073174, 1.3365, -38.1707344, 1.3365, -5.4268293, 0.0514038, -0.1253834, 1.3365, 60.18293, 1.3365, -62.0121956, 1.3365, -16.4634151, 0.0514038, -0.0501869, 1.3365, 31.6463413, 1.3365, -36.5243912, 1.3365, -36.6463432, 0.0514038, 0.0052033, 1.3365, -67.0731735, 1.3365, -40.4268303, 1.3365, 6.4634147, 0.0514038, -0.0820783, 1.3365, -6.0365853, 1.3365, -35.4268303, 1.3365, 1.4634147, , , , , , , , , , , , , , , , , , , , , , 
0.0519231, -0.0553902, 1.35, -17.1951218, 1.35, -99.7561035, 1.35, -16.8292694, 0.0519231, 0.2487526, 1.35, 10.8536587, 1.35, -112.0731735, 1.35, -5, 0.0519231, -0.047837, 1.35, -35.7926826, 1.35, -72.5609741, 1.35, -5.1829271, 0.0519231, -0.0377661, 1.35, 9.0243902, 1.35, -38.4756088, 1.35, -4.1463413, 0.0519231, -0.1297475, 1.35, 49.2682953, 1.35, -57.68293, 1.35, -16.3414631, 0.0519231, -0.0313878, 1.35, 15.2439032, 1.35, -60.9756126, 1.35, -31.8292694, 0.0519231, -0.0031891, 1.35, -62.68293, 1.35, -30.8536587, 1.35, 4.5121951, 0.0519231, -0.0746929, 1.35, -5.0609756, 1.35, -37.3170738, 1.35, 0.6097561, , , , , , , , , , , , , , , , , , , , , , 
0.0524423, -0.057908, 1.3635, -23.3536587, 1.3635, -99.4512253, 1.3635, -19.2682934, 0.0524423, 0.2717479, 1.3635, 16.0365849, 1.3635, -114.4512253, 1.3635, 0.4878049, 0.0524423, -0.0743572, 1.3635, -40.3048782, 1.3635, -57.9268303, 1.3635, -19.6341476, 0.0524423, -0.0431373, 1.3635, 10.3658543, 1.3635, -36.4024391, 1.3635, -3.7804878, 0.0524423, -0.1153124, 1.3635, 44.9390259, 1.3635, -65.3048782, 1.3635, -19.2073174, 0.0524423, 0.0132601, 1.3635, 26.4024391, 1.3635, -57.3780518, 1.3635, -37.9268303, 0.0524423, -0.0115816, 1.3635, -63.3536606, 1.3635, -50.4878044, 1.3635, 0.1219512, 0.0524423, -0.0767071, 1.3635, -4.6951222, 1.3635, -37.1341476, 1.3635, 0.7926829, , , , , , , , , , , , , , , , , , , , , , 
0.0529615, -0.0607614, 1.377, -27.9878063, 1.377, -91.8292694, 1.377, -19.6341476, 0.0529615, 0.2834974, 1.377, 20.8536587, 1.377, -112.3780518, 1.377, 2.6219513, 0.0529615, -0.1206836, 1.377, -49.4512215, 1.377, -35.0609779, 1.377, -37.9878044, 0.0529615, -0.0553902, 1.377, 11.5243902, 1.377, -28.0487804, 1.377, -6.4024391, 0.0529615, -0.0861067, 1.377, 41.2804871, 1.377, -78.4146347, 1.377, -28.9634151, 0.0529615, 0.0407874, 1.377, 42.0731735, 1.377, -19.3902435, 1.377, -45, 0.0529615, -0.012253, 1.377, -64.3902435, 1.377, -79.4512177, 1.377, -3.4146342, 0.0529615, -0.0787213, 1.377, -3.1707318, 1.377, -30.3658543, 1.377, 2.5609756, , , , , , , , , , , , , , , , , , , , , , 
0.0534808, -0.0666361, 1.3905, -29.5731716, 1.3905, -85.3048782, 1.3905, -16.0975609, 0.0534808, 0.2801404, 1.3905, 22.3780499, 1.3905, -108.4756088, 1.3905, 2.804878, 0.0534808, -0.1572747, 1.3905, -52.8658562, 1.3905, -5.1219511, 1.3905, -38.0487823, 0.0534808, -0.0639506, 1.3905, 14.3902445, 1.3905, -17.2560978, 1.3905, -7.7439027, 0.0534808, -0.0532082, 1.3905, 39.1463432, 1.3905, -84.146347, 1.3905, -38.2317085, 0.0534808, 0.0132601, 1.3905, 41.6463432, 1.3905, 23.7195129, 1.3905, -42.4390259, 0.0534808, -0.0015106, 1.3905, -56.1585388, 1.3905, -89.7560959, 1.3905, -0.7926829, 0.0534808, -0.0699931, 1.3905, -2.804878, 1.3905, -20.4268303, 1.3905, 3.5365853, , , , , , , , , , , , , , , , , , , , , , 
0.054, -0.068986, 1.404, -30.3048782, 1.404, -75.8536606, 1.404, -11.5853662, 0.054, 0.2687266, 1.404, 21.7073174, 1.404, -96.0975647, 1.404, 2.2560976, 0.054, -0.163653, 1.404, -53.9634171, 1.404, 12.8048782, 1.404, -32.1951218, 0.054, -0.057908, 1.404, 17.8048782, 1.404, -8.841464, 1.404, -6.2195125, 0.054, -0.0256809, 1.404, 31.7073174, 1.404, -73.5365906, 1.404, -41.2804871, 0.054, -0.0303807, 1.404, 36.4024391, 1.404, 41.4634171, 1.404, -38.4146347, 0.054, 0.0206455, 1.404, -42.8658562, 1.404, -79.3902435, 1.404, 5.1829271, 0.054, -0.0552224, 1.404, -3.7195122, 1.404, -12.1951218, 1.404, 5.3048782, , , , , , , , , , , , , , , , , , , , , , 
0.0545192, -0.0686503, 1.4175, -30, 1.4175, -70.4878082, 1.4175, -9.3902445, 0.0545192, 0.2500954, 1.4175, 20.1829281, 1.4175, -85.6707306, 1.4175, 1.1585366, 0.0545192, -0.1384756, 1.4175, -57.8048782, 1.4175, 36.4024391, 1.4175, -21.0975609, 0.0545192, -0.047837, 1.4175, 20.6097565, 1.4175, -11.5243902, 1.4175, -5.8536587, 0.0545192, -0.0068818, 1.4175, 27.6829281, 1.4175, -65.3048782, 1.4175, -41.8902435, 0.0545192, -0.0377661, 1.4175, 29.6951218, 1.4175, 57.3170738, 1.4175, -32.0731697, 0.0545192, 0.0481727, 1.4175, -37.2560997, 1.4175, -60.7926826, 1.4175, 6.7073174, 0.0545192, -0.0419623, 1.4175, -7.3170733, 1.4175, -12.4390249, 1.4175, 6.8292685, , , , , , , , , , , , , , , , , , , , , , 
0.0550385, -0.0693217, 1.431, -31.5243912, 1.431, -67.9878082, 1.431, -8.4146347, 0.0550385, 0.2217288, 1.431, 18.7195129, 1.431, -78.1097565, 1.431, 1.6463414, 0.0550385, -0.0772107, 1.431, -58.7804909, 1.431, 35.3048782, 1.431, -18.3536587, 0.0550385, -0.0411231, 1.431, 18.2926826, 1.431, -12.7439032, 1.431, -7.3780489, 0.0550385, 0.005539, 1.431, 33.4756088, 1.431, -67.3170776, 1.431, -39.8170738, 0.0550385, -0.03122, 1.431, 29.8170738, 1.431, 46.0975609, 1.431, -31.7682934, 0.0550385, 0.0649577, 1.431, -41.0365868, 1.431, -64.1463394, 1.431, 0.6097561, 0.0550385, -0.0250095, 1.431, -4.9390244, 1.431, -21.280489, 1.431, 5.9756098, , , , , , , , , , , , , , , , , , , , , , 
0.0555577, -0.0726787, 1.4445, -30.2439022, 1.4445, -64.5731735, 1.4445, -4.8170733, 0.0555577, 0.1871519, 1.4445, 23.0487804, 1.4445, -77.68293, 1.4445, 0.1829268, 0.0555577, -0.0028534, 1.4445, -48.7195129, 1.4445, 4.6341462, 1.4445, -24.4512196, 0.0555577, -0.0330663, 1.4445, 14.9390249, 1.4445, -6.7682929, 1.4445, -12.3170738, 0.0555577, 0.005539, 1.4445, 36.9512215, 1.4445, -67.6219559, 1.4445, -35.3048782, 0.0555577, -0.0391089, 1.4445, 31.9512196, 1.4445, 9.9390249, 1.4445, -33.4146347, 0.0555577, 0.0589151, 1.4445, -47.8048782, 1.4445, -74.5121994, 1.4445, -4.9390244, 0.0555577, -0.0023499, 1.4445, -1.5853659, 1.4445, -20.6097565, 1.4445, 4.5731707, , , , , , , , , , , , , , , , , , , , , , 
0.0560769, -0.0740215, 1.458, -28.1097565, 1.458, -60.18293, 1.458, -2.5609756, 0.0560769, 0.1522393, 1.458, 27.2560978, 1.458, -77.8048782, 1.458, -5.1219511, 0.0560769, 0.0454871, 1.458, -40.8536606, 1.458, -45.5487823, 1.458, -33.5975609, 0.0560769, -0.0219883, 1.458, 14.3292685, 1.458, -1.402439, 1.458, -12.1951218, 0.0560769, -0.0057069, 1.458, 36.0365868, 1.458, -62.2560997, 1.458, -29.0853672, 0.0560769, -0.0506905, 1.458, 39.5731735, 1.458, -31.7073174, 1.458, -37.8048782, 0.0560769, 0.0357519, 1.458, -42.8658562, 1.458, -65.7926865, 1.458, -4.3292685, 0.0560769, 0.0092317, 1.458, 4.5731707, 1.458, -6.0365853, 1.458, 4.2073174, , , , , , , , , , , , , , , , , , , , , , 
0.0565962, -0.072343, 1.4715, -21.0975609, 1.4715, -53.4756126, 1.4715, 2.9268293, 0.0565962, 0.1173266, 1.4715, 33.9634171, 1.4715, -84.5121994, 1.4715, -13.9024391, 0.0565962, 0.0485084, 1.4715, -36.5853653, 1.4715, -86.8902435, 1.4715, -40.9756088, 0.0565962, -0.0166171, 1.4715, 19.2682934, 1.4715, -9.5731707, 1.4715, -8.5365858, 0.0565962, -0.0169528, 1.4715, 33.0487823, 1.4715, -50.1829262, 1.4715, -20.6097565, 0.0565962, -0.0602579, 1.4715, 46.1585388, 1.4715, -71.1585388, 1.4715, -42.6829262, 0.0565962, 0.0048676, 1.4715, -33.5975609, 1.4715, -42.0121956, 1.4715, -1.4634147, 0.0565962, 0.0125887, 1.4715, -4.2073174, 1.4715, 15.9756098, 1.4715, 5.670732, , , , , , , , , , , , , , , , , , , , , , 
0.0571154, -0.0736858, 1.485, -16.4634151, 1.485, -54.3902435, 1.485, 6.5853658, 0.0571154, 0.0755322, 1.485, 33.6585388, 1.485, -76.8292694, 1.485, -13.9634151, 0.0571154, 0.0240024, 1.485, -31.280489, 1.485, -114.7561035, 1.485, -39.2682953, 0.0571154, -0.0216526, 1.485, 21.3414631, 1.485, -17.1951218, 1.485, -4.0243902, 0.0571154, -0.0149386, 1.485, 28.4146347, 1.485, -38.1707344, 1.485, -14.2073174, 0.0571154, -0.0647898, 1.485, 42.3780479, 1.485, -94.5121994, 1.485, -43.7195129, 0.0571154, -0.0263523, 1.485, -29.8170738, 1.485, -30, 1.485, -2.1341465, 0.0571154, 0.0293736, 1.485, -14.3292685, 1.485, 9.2073174, 1.485, 6.6463418, , , , , , , , , , , , , , , , , , , , , , 
0.0576346, -0.0787213, 1.4985, -12.9878054, 1.4985, -46.6463432, 1.4985, 7.6829271, 0.0576346, 0.0287022, 1.4985, 21.7682934, 1.4985, -60.7926826, 1.4985, -11.341464, 0.0576346, 0.0109102, 1.4985, -28.3536587, 1.4985, -122.9268341, 1.4985, -31.0975609, 0.0576346, -0.0246738, 1.4985, 19.4512196, 1.4985, -24.6951218, 1.4985, -4.2682929, 0.0576346, -0.0058747, 1.4985, 23.780489, 1.4985, -34.0243912, 1.4985, -11.7073174, 0.0576346, -0.0464942, 1.4985, 34.9390259, 1.4985, -97.1341476, 1.4985, -39.3902435, 0.0576346, -0.0538796, 1.4985, -29.3902454, 1.4985, -30.5487804, 1.4985, -4.0853658, 0.0576346, 0.0481727, 1.4985, -9.6341467, 1.4985, -10.3658543, 1.4985, 6.9512196, , , , , , , , , , , , , , , , , , , , , , 
0.0581538, -0.0834211, 1.512, -9.6951218, 1.512, -30.9146347, 1.512, 5.3658538, 0.0581538, -0.0172885, 1.512, 11.5853662, 1.512, -43.4146347, 1.512, -9.8780489, 0.0581538, -0.0137636, 1.512, -29.1463413, 1.512, -96.4024429, 1.512, -23.780489, 0.0581538, -0.0260166, 1.512, 19.8170738, 1.512, -33.9024391, 1.512, -3.1097562, 0.0581538, -0.0015106, 1.512, 13.1097565, 1.512, -32.6829262, 1.512, -9.3292685, 0.0581538, -0.0223239, 1.512, 29.8780499, 1.512, -73.1707306, 1.512, -32.8048782, 0.0581538, -0.0773785, 1.512, -29.2073174, 1.512, -35.7317085, 1.512, -8.4756098, 0.0581538, 0.0501869, 1.512, -13.2926836, 1.512, -17.9878044, 1.512, 9.7560978, , , , , , , , , , , , , , , , , , , , , , 
0.0586731, -0.087953, 1.5255, -10.1219511, 1.5255, -19.2073174, 1.5255, 0.8536586, 0.0586731, -0.0569009, 1.5255, 4.5121951, 1.5255, -29.2073174, 1.5255, -4.8780489, 0.0586731, -0.0938277, 1.5255, -31.0975609, 1.5255, -52.3780518, 1.5255, -20.4268303, 0.0586731, -0.0293736, 1.5255, 26.5853672, 1.5255, -35.1219521, 1.5255, 1.8902439, 0.0586731, -0.0035248, 1.5255, 6.4634147, 1.5255, -33.3536606, 1.5255, -9.5731707, 0.0586731, -0.0313878, 1.5255, 26.6463413, 1.5255, -27.5, 1.5255, -25.1829281, 0.0586731, -0.093492, 1.5255, -28.2926826, 1.5255, -35.7926826, 1.5255, -11.1585369, 0.0586731, 0.0414588, 1.5255, -22.3780499, 1.5255, -15, 1.5255, 12.7439032, , , , , , , , , , , , , , , , , , , , , , 
0.0591923, -0.0914778, 1.539, -9.3292685, 1.539, -10.4878054, 1.539, -6.1585369, 0.0591923, -0.0820783, 1.539, -1.7073171, 1.539, -20.4878044, 1.539, 0.7926829, 0.0591923, -0.1844663, 1.539, -32.1341476, 1.539, -4.3292685, 1.539, -16.0365849, 0.0591923, -0.0292058, 1.539, 32.6219521, 1.539, -28.780489, 1.539, 6.4024391, 0.0591923, -0.008896, 1.539, 6.8292685, 1.539, -35.4878044, 1.539, -10.6707315, 0.0591923, -0.0605936, 1.539, 20.4878044, 1.539, 19.6951218, 1.539, -19.4512196, 0.0591923, -0.1005417, 1.539, -24.0853672, 1.539, -34.8780479, 1.539, -11.9512196, 0.0591923, 0.0387732, 1.539, -25.1219521, 1.539, -15.9756098, 1.539, 13.6585369, , , , , , , , , , , , , , , , , , , , , , 
0.0597115, -0.0928206, 1.5525, -5.7317076, 1.5525, -3.2926829, 1.5525, -12.3780489, 0.0597115, -0.0850996, 1.5525, -2.5, 1.5525, -17.2560978, 1.5525, 2.4390244, 0.0597115, -0.2301213, 1.5525, -34.9390259, 1.5525, 26.3414631, 1.5525, -9.3292685, 0.0597115, -0.0246738, 1.5525, 36.7073174, 1.5525, -27.5, 1.5525, 9.3292685, 0.0597115, -0.0142672, 1.5525, 11.4634151, 1.5525, -38.6585388, 1.5525, -11.219512, 0.0597115, -0.0652934, 1.5525, 16.7073174, 1.5525, 36.5853653, 1.5525, -18.3536587, 0.0597115, -0.1082628, 1.5525, -23.3536587, 1.5525, -35.2439041, 1.5525, -10.9146347, 0.0597115, 0.0387732, 1.5525, -30.4268303, 1.5525, -7.3170733, 1.5525, 14.1463413, , , , , , , , , , , , , , , , , , , , , , 
0.0602308, -0.0948348, 1.566, 0.7926829, 1.566, -5.0609756, 1.566, -14.0243902, 0.0602308, -0.0770428, 1.566, -3.8414636, 1.566, -19.5121956, 1.566, 1.8902439, 0.0602308, -0.2203861, 1.566, -35.2439041, 1.566, 31.4024391, 1.566, -6.4634147, 0.0602308, -0.0196384, 1.566, 42.0121956, 1.566, -24.5731716, 1.566, 13.1707315, 0.0602308, -0.0146029, 1.566, 13.1707315, 1.566, -37.9878044, 1.566, -8.1707315, 0.0602308, -0.0525368, 1.566, 11.219512, 1.566, 48.7195129, 1.566, -17.7439022, 0.0602308, -0.1173266, 1.566, -22.8658543, 1.566, -30.7317085, 1.566, -8.6585369, 0.0602308, 0.0280308, 1.566, -38.9634171, 1.566, 0.0609756, 1.566, 15.2439032, , , , , , , , , , , , , , , , , , , , , , 
0.06075, -0.0988632, 1.5795, 3.8414636, 1.5795, -8.780488, 1.5795, -15.060976, 0.06075, -0.0770428, 1.5795, -11.1585369, 1.5795, -12.9878054, 1.5795, 3.4146342, 0.06075, -0.1841306, 1.5795, -29.5731716, 1.5795, 6.5853658, 1.5795, -9.4512196, 0.06075, -0.0052033, 1.5795, 45.1219521, 1.5795, -13.3536587, 1.5795, 14.0243902, 0.06075, -0.0102388, 1.5795, 9.3902445, 1.5795, -27.3780499, 1.5795, 0.1219512, 0.06075, -0.0466621, 1.5795, 12.1951218, 1.5795, 30.9146347, 1.5795, -16.7682934, 0.06075, -0.1196765, 1.5795, 0, 1.5795, 0, 1.5795, 0, 0.06075, 0.0246738, 1.5795, -38.5975609, 1.5795, 0.1219512, 1.5795, 15.4878054, , , , , , , , , , , , , , , , , , , , , , 
0.0612692, -0.103563, 1.593, 2.4390244, 1.593, -7.6829271, 1.593, -17.6829281, 0.0612692, -0.0847639, 1.593, -20.7317085, 1.593, -3.4756098, 1.593, 5.1829271, 0.0612692, -0.1616388, 1.593, -25.1219521, 1.593, -11.7682934, 1.593, -12.0121956, 0.0612692, 0.0146029, 1.593, 45.0609779, 1.593, 0, 1.593, 12.4390249, 0.0612692, -0.005539, 1.593, 4.390244, 1.593, -13.7195129, 1.593, 8.2317076, 0.0612692, -0.0417945, 1.593, 17.0121956, 1.593, -4.5731707, 1.593, -15, 0.0612692, -0.1084306, 1.593, -26.8902454, 1.593, -14.1463413, 1.593, -9.8780489, 0.0612692, 0.036759, 1.593, -35.8536606, 1.593, -0.3048781, 1.593, 15, , , , , , , , , , , , , , , , , , , , , , 
0.0617885, -0.110277, 1.6065, 1.0365853, 1.6065, -2.804878, 1.6065, -18.7195129, 0.0617885, -0.0904707, 1.6065, -23.1097565, 1.6065, -4.3292685, 1.6065, 2.9268293, 0.0617885, -0.1404898, 1.6065, -17.2560978, 1.6065, -48.1707344, 1.6065, -15.8536587, 0.0617885, 0.026688, 1.6065, 43.7195129, 1.6065, 3.9634147, 1.6065, 11.7073174, 0.0617885, -0.0001678, 1.6065, 4.3292685, 1.6065, -6.1585369, 1.6065, 11.4024391, 0.0617885, -0.0203098, 1.6065, 20.2439022, 1.6065, -38.3536606, 1.6065, -14.4512196, 0.0617885, -0.0924849, 1.6065, 0, 1.6065, 0, 1.6065, 0, 0.0617885, 0.0412909, 1.6065, -31.8292694, 1.6065, 1.6463414, 1.6065, 13.0487804, , , , , , , , , , , , , , , , , , , , , , 
0.0623077, -0.1169909, 1.62, 0.7317073, 1.62, -1.2804878, 1.62, -17.3780499, 0.0623077, -0.0874495, 1.62, -22.2560978, 1.62, -8.4146347, 1.62, 0.1829268, 0.0623077, -0.1253834, 1.62, -13.7195129, 1.62, -66.4024429, 1.62, -16.8902435, 0.0623077, 0.0347448, 1.62, 40.4878044, 1.62, 1.1585366, 1.62, 12.2560978, 0.0623077, 0.0070497, 1.62, 7.5609756, 1.62, -4.0243902, 1.62, 10.2439022, 0.0623077, -0.0025177, 1.62, 19.6951218, 1.62, -49.3902435, 1.62, -14.5731707, 0.0623077, -0.0773785, 1.62, 0, 1.62, 0, 1.62, 0, 0.0623077, 0.0313878, 1.62, -31.8292694, 1.62, 3.7804878, 1.62, 10.2439022, , , , , , , , , , , , , , , , , , , , , , 
0.0628269, -0.1220264, 1.6335, 0.9756098, 1.6335, -1.0365853, 1.6335, -12.8048782, 0.0628269, -0.0733501, 1.6335, -18.4146347, 1.6335, -10.7317076, 1.6335, -0.3658537, 0.0628269, -0.1542535, 1.6335, -14.8780489, 1.6335, -55.8536606, 1.6335, -14.2073174, 0.0628269, 0.0339055, 1.6335, 36.7073174, 1.6335, -8.1097565, 1.6335, 14.6951227, 0.0628269, 0.0159457, 1.6335, 9.9390249, 1.6335, -2.195122, 1.6335, 6.9512196, 0.0628269, -0.01561, 1.6335, 16.8292694, 1.6335, -36.341465, 1.6335, -12.9878054, 0.0628269, -0.0614328, 1.6335, -24.3902435, 1.6335, 1.8902439, 1.6335, -3.2926829, 0.0628269, 0.0374304, 1.6335, -33.0487823, 1.6335, 1.2195122, 1.6335, 7.0731707, , , , , , , , , , , , , , , , , , , , , , 
0.0633462, -0.1250477, 1.647, 1.8902439, 1.647, -3.0487804, 1.647, -8.780488, 0.0633462, -0.0542153, 1.647, -10.6707315, 1.647, -9.7560978, 1.647, 0.7317073, 0.0633462, -0.2217288, 1.647, -16.7682934, 1.647, -31.0975609, 1.647, -7.7439027, 0.0633462, 0.0246738, 1.647, 33.0487823, 1.647, -18.6585369, 1.647, 15.8536587, 0.0633462, 0.0234989, 1.647, 9.8170738, 1.647, 0.0609756, 1.647, 5.3658538, 0.0633462, -0.0426337, 1.647, 11.0365858, 1.647, -13.3536587, 1.647, -9.0243902, 0.0633462, -0.0485084, 1.647, -22.7439022, 1.647, 2.4390244, 1.647, -0.6707317, 0.0633462, 0.0649577, 1.647, -35.4268303, 1.647, -2.8658538, 1.647, 4.6951222, , , , , , , , , , , , , , , , , , , , , , 
0.0638654, -0.1290761, 1.6605, 0.2439024, 1.6605, -1.5853659, 1.6605, -5.1829271, 0.0638654, -0.0384375, 1.6605, -3.7195122, 1.6605, -3.8414636, 1.6605, 0.3048781, 0.0638654, -0.2811475, 1.6605, -14.2073174, 1.6605, -11.219512, 1.6605, -1.2804878, 0.0638654, 0.0246738, 1.6605, 28.841465, 1.6605, -23.3536587, 1.6605, 13.2317076, 0.0638654, 0.0280308, 1.6605, 8.1707315, 1.6605, 4.5731707, 1.6605, 2.6829269, 0.0638654, -0.0740215, 1.6605, 4.5121951, 1.6605, -2.804878, 1.6605, -4.8780489, 0.0638654, -0.0414588, 1.6605, -21.6463413, 1.6605, 0.7317073, 1.6605, 0.8536586, 0.0638654, 0.0782177, 1.6605, -32.8658562, 1.6605, -6.4024391, 1.6605, 4.2073174, , , , , , , , , , , , , , , , , , , , , , 
0.0643846, -0.131426, 1.674, -0.9146342, 1.674, 5.4268293, 1.674, -2.195122, 0.0643846, -0.0186313, 1.674, -1.0365853, 1.674, -2.4390244, 1.674, -2.0731707, 0.0643846, -0.2626841, 1.674, -9.3902445, 1.674, -13.780488, 1.674, 0.9756098, 0.0643846, 0.0260166, 1.674, 26.5243912, 1.674, -23.5975609, 1.674, 11.0365858, 0.0643846, 0.030045, 1.674, 6.8292685, 1.674, 4.0243902, 1.674, -2.195122, 0.0643846, -0.0817426, 1.674, 1.5853659, 1.674, -9.3292685, 1.674, -2.9268293, 0.0643846, -0.0327306, 1.674, -19.0243912, 1.674, -3.6585367, 1.674, 3.1707318, 0.0643846, 0.0558938, 1.674, -25.3048782, 1.674, -6.8292685, 1.674, 3.2926829, , , , , , , , , , , , , , , , , , , , , , 
0.0649038, -0.1331044, 1.6875, -1.5243902, 1.6875, 10.9756098, 1.6875, 1.8292683, 0.0649038, 0.0068818, 1.6875, 1.5243902, 1.6875, -1.8902439, 1.6875, -4.0853658, 0.0649038, -0.1787594, 1.6875, -5, 1.6875, -34.5121956, 1.6875, 0.1219512, 0.0649038, 0.012253, 1.6875, 23.780489, 1.6875, -17.6829281, 1.6875, 8.0487804, 0.0649038, 0.0327306, 1.6875, 7.4390244, 1.6875, -3.0487804, 1.6875, -8.1097565, 0.0649038, -0.0599222, 1.6875, 2.3170731, 1.6875, -30.7926846, 1.6875, -2.9878049, 0.0649038, -0.0142672, 1.6875, -14.5121956, 1.6875, -7.9268293, 1.6875, 5.3658538, 0.0649038, 0.0206455, 1.6875, -22.439024, 1.6875, -3.1707318, 1.6875, 0.1829268, , , , , , , , , , , , , , , , , , , , , , 
0.0654231, -0.1337758, 1.701, -3.2926829, 1.701, 15.4268293, 1.701, 6.3414636, 0.0654231, 0.0253452, 1.701, 5.3658538, 1.701, 3.4756098, 1.701, -4.0243902, 0.0654231, -0.0783856, 1.701, -0.3658537, 1.701, -59.0853691, 1.701, 0.7317073, 0.0654231, -0.0095674, 1.701, 23.9024391, 1.701, -5.9146342, 1.701, 6.5243902, 0.0654231, 0.0381018, 1.701, 7.8048782, 1.701, -6.7073174, 1.701, -13.2317076, 0.0654231, -0.0307164, 1.701, 2.2560976, 1.701, -43.4146347, 1.701, -2.7439024, 0.0654231, 0.0124208, 1.701, -10.060976, 1.701, -11.8292685, 1.701, 6.890244, 0.0654231, 0.0072175, 1.701, -21.8902435, 1.701, 8.4756098, 1.701, -2.5, , , , , , , , , , , , , , , , , , , , , , 
0.0659423, -0.1299153, 1.7145, -5.3658538, 1.7145, 21.8292694, 1.7145, 10.5487804, 0.0659423, 0.0381018, 1.7145, 8.719512, 1.7145, 10.060976, 1.7145, -3.8414636, 0.0659423, 0.0184634, 1.7145, 4.0853658, 1.7145, -77.5, 1.7145, 3.3536587, 0.0659423, -0.0250095, 1.7145, 22.3170738, 1.7145, 7.0731707, 1.7145, 3.0487804, 0.0659423, 0.043473, 1.7145, 5.670732, 1.7145, -9.7560978, 1.7145, -17.3780499, 0.0659423, -0.0166171, 1.7145, -0.1829268, 1.7145, -62.1951218, 1.7145, -1.5853659, 0.0659423, 0.0441444, 1.7145, -8.2926826, 1.7145, -13.1707315, 1.7145, 7.5, 0.0659423, 0.0186313, 1.7145, -15.4878054, 1.7145, 20.6707325, 1.7145, -3.5365853, , , , , , , , , , , , , , , , , , , , , , 
0.0664615, -0.1237049, 1.728, -7.9268293, 1.728, 26.2195129, 1.728, 13.3536587, 0.0664615, 0.0518654, 1.728, 9.5121956, 1.728, 12.7439032, 1.728, -3.9634147, 0.0664615, 0.0842603, 1.728, 6.7073174, 1.728, -78.9024429, 1.728, 6.4024391, 0.0664615, -0.0196384, 1.728, 20.6097565, 1.728, 17.9268303, 1.728, -0.3048781, 0.0664615, 0.0461585, 1.728, 0.7317073, 1.728, -8.2926826, 1.728, -20, 0.0664615, -0.0206455, 1.728, -4.3292685, 1.728, -68.2317123, 1.728, -0.3658537, 0.0664615, 0.0817426, 1.728, -4.0853658, 1.728, -15.4878054, 1.728, 7.5609756, 0.0664615, 0.0350805, 1.728, -11.1585369, 1.728, 24.6951218, 1.728, -3.7804878, , , , , , , , , , , , , , , , , , , , , , 
0.0669808, -0.1176623, 1.7415, -9.8170738, 1.7415, 31.8292694, 1.7415, 15.060976, 0.0669808, 0.0673075, 1.7415, 11.219512, 1.7415, 16.4634151, 1.7415, -4.1463413, 0.0669808, 0.1116197, 1.7415, 4.7560978, 1.7415, -73.2926865, 1.7415, 8.1097565, 0.0669808, 0.0137636, 1.7415, 19.8170738, 1.7415, 18.1097565, 1.7415, -0.1829268, 0.0669808, 0.0454871, 1.7415, -3.7804878, 1.7415, -10.7926836, 1.7415, -21.4024391, 0.0669808, -0.0176242, 1.7415, -6.7073174, 1.7415, -63.0487823, 1.7415, 0.3048781, 0.0669808, 0.1176623, 1.7415, -1.2804878, 1.7415, -19.3292694, 1.7415, 6.9512196, 0.0669808, 0.0404517, 1.7415, -11.5853662, 1.7415, 24.0243912, 1.7415, -4.1463413, , , , , , , , , , , , , , , , , , , , , , 
0.0675, -0.1139696, 1.755, -10.1829271, 1.755, 36.5243912, 1.755, 16.4634151, 0.0675, 0.0810712, 1.755, 12.6219511, 1.755, 19.5121956, 1.755, -3.5975611, 0.0675, 0.0965133, 1.755, 0.1829268, 1.755, -55, 1.755, 8.5365858, 0.0675, 0.0303807, 1.755, 18.1097565, 1.755, 14.2682934, 1.755, 0.8536586, 0.0675, 0.0454871, 1.755, -6.890244, 1.755, -14.7560978, 1.755, -21.8292694, 0.0675, -0.0041962, 1.755, -6.1585369, 1.755, -46.0365868, 1.755, 0.3048781, 0.0675, 0, 1.755, 1.7073171, 1.755, -22.3170738, 1.755, 5.5487804, 0.0675, 0.0270237, 1.755, -14.4512196, 1.755, 21.4024391, 1.755, -4.8780489, , , , , , , , , , , , , , , , , , , , , , 
0.0680192, -0.1092699, 1.7685, -10.3658543, 1.7685, 38.3536606, 1.7685, 17.0121956, 0.0680192, 0.0867781, 1.7685, 13.9634151, 1.7685, 21.4024391, 1.7685, -3.1097562, 0.0680192, 0.0438087, 1.7685, -2.3170731, 1.7685, -34.6951218, 1.7685, 9.8780489, 0.0680192, 0.005539, 1.7685, 16.0365849, 1.7685, 7.8048782, 1.7685, 0.2439024, 0.0680192, 0.0458228, 1.7685, -7.9268293, 1.7685, -18.1707325, 1.7685, -20.060976, 0.0680192, 0.005539, 1.7685, -7.2560978, 1.7685, -23.780489, 1.7685, 0.7926829, 0.0680192, 0, 1.7685, 2.0121951, 1.7685, -22.0121956, 1.7685, 2.9878049, 0.0680192, 0.0115816, 1.7685, -13.4146347, 1.7685, 19.8170738, 1.7685, -5.3658538, , , , , , , , , , , , , , , , , , , , , , 
0.0685385, -0.102388, 1.782, -10.3048782, 1.782, 41.8902435, 1.782, 16.8902435, 0.0685385, 0.0876173, 1.782, 14.8780489, 1.782, 25.1219521, 1.782, -3.0487804, 0.0685385, 0.0092317, 1.782, -3.9024391, 1.782, -16.2195129, 1.782, 13.9024391, 0.0685385, -0.0152743, 1.782, 14.9390249, 1.782, 7.5, 1.782, -0.4878049, 0.0685385, 0.0438087, 1.782, -7.6219516, 1.782, -17.7439022, 1.782, -15.9146347, 0.0685385, 0.0016785, 1.782, -10.4268293, 1.782, -5.4878049, 1.782, 2.4390244, 0.0685385, 0, 1.782, 1.0365853, 1.782, -21.6463413, 1.782, 0.3658537, 0.0685385, 0.0159457, 1.782, -9.9390249, 1.782, 17.0121956, 1.782, -4.5731707, , , , , , , , , , , , , , , , , , , , , , 
0.0690577, -0.0958419, 1.7955, -10.3048782, 1.7955, 41.5243912, 1.7955, 14.7560978, 0.0690577, 0.0864424, 1.7955, 13.6585369, 1.7955, 29.3292694, 1.7955, -2.5, 0.0690577, 0.0166171, 1.7955, -4.3292685, 1.7955, -12.0121956, 1.7955, 15.7317076, 0.0690577, -0.0028534, 1.7955, 16.1585369, 1.7955, 7.0731707, 1.7955, 1.5853659, 0.0690577, 0.0387732, 1.7955, -6.3414636, 1.7955, -11.5853662, 1.7955, -11.1585369, 0.0690577, -0.011078, 1.7955, -13.5365858, 1.7955, 1.7682927, 1.7955, 3.2926829, 0.0690577, 0, 1.7955, -0.0609756, 1.7955, -15.2439032, 1.7955, -0.1829268, 0.0690577, 0.0280308, 1.7955, -9.6341467, 1.7955, 9.9390249, 1.7955, -4.3292685, , , , , , , , , , , , , , , , , , , , , , 
0.0695769, -0.0931563, 1.809, -10.6097565, 1.809, 37.2560997, 1.809, 12.5, 0.0695769, 0.0750286, 1.809, 11.7682934, 1.809, 30.5487804, 1.809, -0.8536586, 0.0695769, 0.036759, 1.809, -4.5121951, 1.809, -11.280488, 1.809, 16.0365849, 0.0695769, 0.0124208, 1.809, 18.6585369, 1.809, 3.1707318, 1.809, 4.3292685, 0.0695769, 0.0325628, 1.809, -5.7926831, 1.809, -8.9024391, 1.809, -9.0243902, 0.0695769, -0.0193027, 1.809, 0, 1.809, 0, 1.809, 0, 0.0695769, 0, 1.809, 0, 1.809, 0, 1.809, 0, 0.0695769, 0.0307164, 1.809, -14.5731707, 1.809, 5.5487804, 1.809, -4.7560978, , , , , , , , , , , , , , , , , , , , , , 
0.0700962, -0.0916457, 1.8225, -10.060976, 1.8225, 33.3536606, 1.8225, 11.341464, 0.0700962, 0.0464942, 1.8225, 8.4756098, 1.8225, 26.8902454, 1.8225, 0.3048781, 0.0700962, 0.043473, 1.8225, -4.2073174, 1.8225, -12.0121956, 1.8225, 13.4756098, 0.0700962, 0.0078889, 1.8225, 18.5975609, 1.8225, -0.3048781, 1.8225, 3.1707318, 0.0700962, 0.0260166, 1.8225, -5.4268293, 1.8225, -2.6829269, 1.8225, -4.8780489, 0.0700962, -0.0146029, 1.8225, -10.5487804, 1.8225, -1.097561, 1.8225, 2.8658538, 0.0700962, 0, 1.8225, -2.804878, 1.8225, -2.9878049, 1.8225, -1.0365853, 0.0700962, 0.0313878, 1.8225, -16.4024391, 1.8225, 8.0487804, 1.8225, -3.9634147, , , , , , , , , , , , , , , , , , , , , , 
0.0706154, -0.0871138, 1.836, -6.7682929, 1.836, 32.0731697, 1.836, 10.1219511, 0.0706154, 0.0159457, 1.836, 4.5731707, 1.836, 21.0365868, 1.836, 0.0609756, 0.0706154, 0.0172885, 1.836, -3.5975611, 1.836, -15.3658543, 1.836, 12.0121956, 0.0706154, 0.0010071, 1.836, 18.780489, 1.836, 3.0487804, 1.836, 0.1219512, 0.0706154, 0.0206455, 1.836, -4.4512196, 1.836, 2.5, 1.836, -1.0365853, 0.0706154, 0.0020142, 1.836, -10, 1.836, -2.5, 1.836, 2.8658538, 0.0706154, 0, 1.836, -5.0609756, 1.836, 1.0365853, 1.836, -1.6463414, 0.0706154, 0.0327306, 1.836, -12.1341467, 1.836, 10.3048782, 1.836, -1.5243902, , , , , , , , , , , , , , , , , , , , , , 
0.0711346, -0.0820783, 1.8495, -0.9146342, 1.8495, 31.5243912, 1.8495, 8.3536587, 0.0711346, 0.0025177, 1.8495, 0.5487805, 1.8495, 18.5975609, 1.8495, -2.0731707, 0.0711346, -0.0082246, 1.8495, -2.2560976, 1.8495, -16.2195129, 1.8495, 11.219512, 0.0711346, 0.0008392, 1.8495, 20.3048782, 1.8495, 5.7317076, 1.8495, 0, 0.0711346, 0.0169528, 1.8495, -3.4146342, 1.8495, 5.670732, 1.8495, 2.9268293, 0.0711346, 0.0104067, 1.8495, -10.1219511, 1.8495, -2.8658538, 1.8495, 2.9878049, 0.0711346, 0, 1.8495, -8.3536587, 1.8495, 4.5121951, 1.8495, -2.5, 0.0711346, 0.0330663, 1.8495, -14.9390249, 1.8495, 8.719512, 1.8495, -0.8536586, , , , , , , , , , , , , , , , , , , , , , 
0.0716538, -0.0787213, 1.863, 4.1463413, 1.863, 31.9512196, 1.863, 7.9268293, 0.0716538, 0.0117494, 1.863, -2.7439024, 1.863, 21.8902435, 1.863, -4.0243902, 0.0716538, 0.0241703, 1.863, -2.1341465, 1.863, -14.8170738, 1.863, 9.0853662, 0.0716538, -0.0028534, 1.863, 23.1707325, 1.863, 5, 1.863, 4.6341462, 0.0716538, 0.0139315, 1.863, -1.9512196, 1.863, 6.4024391, 1.863, 5.4268293, 0.0716538, 0.0045319, 1.863, -9.5731707, 1.863, 0.1829268, 1.863, 3.4756098, 0.0716538, 0, 1.863, -11.0975609, 1.863, 7.3170733, 1.863, -2.195122, 0.0716538, 0.0275273, 1.863, -21.7682934, 1.863, 1.9512196, 1.863, -1.8292683, , , , , , , , , , , , , , , , , , , , , , 
0.0721731, -0.0780499, 1.8765, 6.1585369, 1.8765, 31.5853672, 1.8765, 7.6219516, 0.0721731, 0.0344091, 1.8765, -5.1829271, 1.8765, 25.7317085, 1.8765, -3.7195122, 0.0721731, 0.0918135, 1.8765, -6.1585369, 1.8765, -5.1219511, 1.8765, 6.1585369, 0.0721731, -0.0146029, 1.8765, 24.2073174, 1.8765, -2.195122, 1.8765, 7.8658538, 0.0721731, 0.0102388, 1.8765, -0.4268293, 1.8765, 6.0975609, 1.8765, 6.7682929, 0.0721731, -0.0030213, 1.8765, -6.280488, 1.8765, 9.5731707, 1.8765, 3.4146342, 0.0721731, 0, 1.8765, -13.0487804, 1.8765, 8.2317076, 1.8765, -2.9878049, 0.0721731, 0.0203098, 1.8765, -24.8170738, 1.8765, 2.7439024, 1.8765, -2.0731707, , , , , , , , , , , , , , , , , , , , , , 
0.0726923, -0.0780499, 1.89, 7.2560978, 1.89, 33.1097565, 1.89, 6.0365853, 0.0726923, 0.0632792, 1.89, -6.4634147, 1.89, 26.3414631, 1.89, -3.1097562, 0.0726923, 0.1183337, 1.89, -10.060976, 1.89, 5.8536587, 1.89, 5.1219511, 0.0726923, -0.0236667, 1.89, 22.9878063, 1.89, -3.2317073, 1.89, 5.670732, 0.0726923, 0.002182, 1.89, 1.4634147, 1.89, 7.1341467, 1.89, 8.9634151, 0.0726923, -0.0003357, 1.89, -3.1097562, 1.89, 24.6341476, 1.89, 2.9878049, 0.0726923, 0, 1.89, -14.6341467, 1.89, 9.6341467, 1.89, -4.390244, 0.0726923, 0.0191348, 1.89, -19.0243912, 1.89, 6.7682929, 1.89, 0, , , , , , , , , , , , , , , , , , , , , , 
0.0732115, -0.0767071, 1.9035, 7.7439027, 1.9035, 32.2560997, 1.9035, 4.2682929, 0.0732115, 0.096849, 1.9035, -8.4756098, 1.9035, 23.4756107, 1.9035, -2.6219513, 0.0732115, 0.0958419, 1.9035, -11.0975609, 1.9035, 22.2560978, 1.9035, 7.6219516, 0.0732115, -0.0203098, 1.9035, 24.1463413, 1.9035, 0.7317073, 1.9035, 3.3536587, 0.0732115, -0.0082246, 1.9035, 1.1585366, 1.9035, 7.0731707, 1.9035, 11.7682934, 0.0732115, 0.0023499, 1.9035, -5, 1.9035, 38.0487823, 1.9035, 3.7804878, 0.0732115, 0, 1.9035, -15.3048782, 1.9035, 11.219512, 1.9035, -5.2439027, 0.0732115, 0.0243381, 1.9035, -17.560976, 1.9035, 7.5609756, 1.9035, 0.9756098, , , , , , , , , , , , , , , , , , , , , , 
0.0737308, -0.0777142, 1.917, 6.1585369, 1.917, 27.3170738, 1.917, 2.0731707, 0.0737308, 0.1263905, 1.917, -9.0243902, 1.917, 19.8170738, 1.917, -2.5, 0.0737308, 0.0599222, 1.917, -11.0365858, 1.917, 25, 1.917, 9.0853662, 0.0737308, -0.0085603, 1.917, 26.4634151, 1.917, 1.402439, 1.917, 3.5975611, 0.0737308, -0.0162814, 1.917, 1.5243902, 1.917, 9.3902445, 1.917, 13.841464, 0.0737308, -0.0018463, 1.917, -7.0121951, 1.917, 42.2560997, 1.917, 4.2073174, 0.0737308, 0, 1.917, -16.1585369, 1.917, 12.6829271, 1.917, -5.1829271, 0.0737308, 0.0318914, 1.917, -19.0853672, 1.917, 8.0487804, 1.917, 2.0121951, , , , , , , , , , , , , , , , , , , , , , 
0.07425, -0.0780499, 1.9305, 5.0609756, 1.9305, 24.4512196, 1.9305, 1.0365853, 0.07425, 0.1388113, 1.9305, -9.7560978, 1.9305, 17.0731716, 1.9305, -1.2195122, 0.07425, 0.0542153, 1.9305, -10.4268293, 1.9305, 19.6341476, 1.9305, 6.280488, 0.07425, -0.0062104, 1.9305, 26.1585369, 1.9305, 0.8536586, 1.9305, 3.5975611, 0.07425, -0.0206455, 1.9305, 3.5365853, 1.9305, 10.9756098, 1.9305, 13.841464, 0.07425, -0.0031891, 1.9305, -5.3048782, 1.9305, 37.1341476, 1.9305, 3.1097562, 0.07425, 0, 1.9305, -17.6219521, 1.9305, 14.5121956, 1.9305, -4.2682929, 0.07425, 0.0307164, 1.9305, -20, 1.9305, 6.5243902, 1.9305, 2.7439024, , , , , , , , , , , , , , , , , , , , , , 
0.0747692, -0.0782177, 1.944, 2.4390244, 1.944, 19.0243912, 1.944, -1.3414634, 0.0747692, 0.128069, 1.944, -10.7317076, 1.944, 13.2926836, 1.944, 0.4268293, 0.0747692, 0.0493477, 1.944, -9.3292685, 1.944, 9.0243902, 1.944, 2.4390244, 0.0747692, -0.018967, 1.944, 23.3536587, 1.944, -4.6341462, 1.944, 2.4390244, 0.0747692, -0.0240024, 1.944, 5.4268293, 1.944, 13.3536587, 1.944, 13.5975609, 0.0747692, -0.0082246, 1.944, -1.8292683, 1.944, 25.7926826, 1.944, 1.9512196, 0.0747692, 0, 1.944, -17.8048782, 1.944, 14.9390249, 1.944, -4.0243902, 0.0747692, 0.0203098, 1.944, -17.3170738, 1.944, 6.3414636, 1.944, 2.3170731, , , , , , , , , , , , , , , , , , , , , , 
0.0752885, -0.0800641, 1.9575, 1.9512196, 1.9575, 13.9024391, 1.9575, -2.0121951, 0.0752885, 0.1052415, 1.9575, -8.9634151, 1.9575, 9.5731707, 1.9575, 0.2439024, 0.0752885, -0.0381018, 1.9575, -7.1951222, 1.9575, -0.6707317, 1.9575, 0.9756098, 0.0752885, -0.0391089, 1.9575, 21.8292694, 1.9575, -5.1829271, 1.9575, 2.3170731, 0.0752885, -0.0273594, 1.9575, 5.5487804, 1.9575, 15.6707325, 1.9575, 13.6585369, 0.0752885, -0.0193027, 1.9575, -0.1829268, 1.9575, 13.9634151, 1.9575, 1.4634147, 0.0752885, 0, 1.9575, -17.6829281, 1.9575, 13.9024391, 1.9575, -3.9634147, 0.0752885, 0.0132601, 1.9575, -15.7926836, 1.9575, 2.3780489, 1.9575, 1.1585366, , , , , , , , , , , , , , , , , , , , , , 
0.0758077, -0.0820783, 1.971, 0.5487805, 1.971, 10.1219511, 1.971, -2.5, 0.0758077, 0.0829175, 1.971, -7.8048782, 1.971, 5.4268293, 1.971, -0.3658537, 0.0758077, -0.1978943, 1.971, -4.9390244, 1.971, -12.560976, 1.971, 2.6829269, 0.0758077, -0.0464942, 1.971, 21.8292694, 1.971, -0.4268293, 1.971, 1.5853659, 0.0758077, -0.0337377, 1.971, 4.6951222, 1.971, 15.6097565, 1.971, 12.9878054, 0.0758077, -0.0330663, 1.971, -1.8292683, 1.971, 4.0243902, 1.971, 2.1341465, 0.0758077, 0, 1.971, -18.0487804, 1.971, 13.9024391, 1.971, -3.0487804, 0.0758077, 0.0159457, 1.971, -13.841464, 1.971, 1.5243902, 1.971, 0.6097561, , , , , , , , , , , , , , , , , , , , , , 
0.0763269, -0.0807355, 1.9845, -1.1585366, 1.9845, 8.2926826, 1.9845, -3.2317073, 0.0763269, 0.0659648, 1.9845, -4.9390244, 1.9845, 2.7439024, 1.9845, -0.9146342, 0.0763269, -0.3271382, 1.9845, -4.9390244, 1.9845, -16.4024391, 1.9845, 3.5975611, 0.0763269, -0.0387732, 1.9845, 21.8902435, 1.9845, 6.3414636, 1.9845, -0.1219512, 0.0763269, -0.0377661, 1.9845, 3.7804878, 1.9845, 12.3170738, 1.9845, 9.2682924, 0.0763269, -0.0468299, 1.9845, -2.6219513, 1.9845, -1.5243902, 1.9845, 1.9512196, 0.0763269, 0, 1.9845, -16.2195129, 1.9845, 13.4146347, 1.9845, -1.5243902, 0.0763269, 0.0193027, 1.9845, -13.1097565, 1.9845, 5.7926831, 1.9845, 0.1829268, , , , , , , , , , , , , , , , , , , , , , 
0.0768462, -0.0814069, 1.998, -1.6463414, 1.998, 8.780488, 1.998, -3.0487804, 0.0768462, 0.0589151, 1.998, -1.3414634, 1.998, -0.3048781, 1.998, -1.5243902, 0.0768462, -0.3425803, 1.998, -6.4634147, 1.998, -14.6341467, 1.998, 4.2073174, 0.0768462, -0.0339055, 1.998, 21.3414631, 1.998, 10, 1.998, 0.4878049, 0.0768462, -0.0391089, 1.998, 5.1219511, 1.998, 7.9268293, 1.998, 4.4512196, 0.0768462, -0.0387732, 1.998, -2.195122, 1.998, -1.1585366, 1.998, 1.5853659, 0.0768462, 0, 1.998, -15.9756098, 1.998, 10.1829271, 1.998, 0.6097561, 0.0768462, 0.0198062, 1.998, -12.8658543, 1.998, 13.9024391, 1.998, 0.3658537, , , , , , , , , , , , , , , , , , , , , , 
0.0773654, -0.0844282, 2.0115, 1.4634147, 2.0115, 8.9024391, 2.0115, -1.7073171, 0.0773654, 0.0555581, 2.0115, -0.5487805, 2.0115, -6.3414636, 2.0115, -3.2926829, 0.0773654, -0.2764477, 2.0115, -7.9878049, 2.0115, -9.8170738, 2.0115, 3.1707318, 0.0773654, -0.0354162, 2.0115, 22.560976, 2.0115, 4.8170733, 2.0115, 2.9268293, 0.0773654, -0.047837, 2.0115, 7.0731707, 2.0115, 5, 2.0115, 0.5487805, 0.0773654, -0.0083925, 2.0115, -1.4634147, 2.0115, 6.0975609, 2.0115, 0.9756098, 0.0773654, 0, 2.0115, -17.0121956, 2.0115, 5.9756098, 2.0115, 2.0121951, 0.0773654, 0.0182956, 2.0115, -17.1341476, 2.0115, 18.1097565, 2.0115, -0.1829268, , , , , , , , , , , , , , , , , , , , , , 
0.0778846, -0.0874495, 2.025, 4.8780489, 2.025, 10.4268293, 2.025, -0.1829268, 0.0778846, 0.0473335, 2.025, -2.3170731, 2.025, -2.9268293, 2.025, -3.3536587, 0.0778846, -0.1701991, 2.025, -9.3902445, 2.025, -1.4634147, 2.025, 3.4146342, 0.0778846, -0.036759, 2.025, 24.5731716, 2.025, -1.2195122, 2.025, 7.0731707, 0.0778846, -0.0602579, 2.025, 8.2317076, 2.025, 2.6219513, 2.025, -0.3658537, 0.0778846, 0.0224918, 2.025, -1.5853659, 2.025, 15.3048782, 2.025, 0.7926829, 0.0778846, 0, 2.025, -18.6585369, 2.025, 2.3780489, 2.025, 2.7439024, 0.0778846, 0.0194705, 2.025, -22.6219521, 2.025, 5.5487804, 2.025, -0.9146342, , , , , , , , , , , , , , , , , , , , , , 
0.0784038, -0.0881209, 2.0385, 4.9390244, 2.0385, 16.1585369, 2.0385, 0.3048781, 0.0784038, 0.0359197, 2.0385, -6.890244, 2.0385, 5.3048782, 2.0385, -0.9756098, 0.0784038, -0.0384375, 2.0385, -9.4512196, 2.0385, 1.3414634, 2.0385, 5.5487804, 0.0784038, -0.0310521, 2.0385, 24.2073174, 2.0385, -4.5121951, 2.0385, 7.5, 0.0784038, -0.0659648, 2.0385, 8.6585369, 2.0385, 1.7073171, 2.0385, 0.6097561, 0.0784038, 0.03122, 2.0385, -3.5365853, 2.0385, 16.5243912, 2.0385, 0.9756098, 0.0784038, 0, 2.0385, -20.1219521, 2.0385, -0.4878049, 2.0385, 1.6463414, 0.0784038, 0.0246738, 2.0385, -20.9756107, 2.0385, -4.4512196, 2.0385, -1.402439, , , , , , , , , , , , , , , , , , , , , , 
0.0789231, -0.0861067, 2.052, 3.2926829, 2.052, 19.6341476, 2.052, -0.5487805, 0.0789231, 0.0263523, 2.052, -8.841464, 2.052, 7.5, 2.052, -0.2439024, 0.0789231, 0.1233692, 2.052, -9.1463413, 2.052, -2.8658538, 2.052, 6.3414636, 0.0789231, -0.0186313, 2.052, 21.7073174, 2.052, -4.8780489, 2.052, 4.2682929, 0.0789231, -0.0626078, 2.052, 8.2926826, 2.052, 0.3658537, 2.052, 1.7073171, 0.0789231, 0.0179599, 2.052, -4.1463413, 2.052, 11.6463413, 2.052, 0.4878049, 0.0789231, 0, 2.052, -19.6341476, 2.052, 0.3048781, 2.052, 0.2439024, 0.0789231, 0.0290379, 2.052, -17.8048782, 2.052, -6.2195125, 2.052, -0.9756098, , , , , , , , , , , , , , , , , , , , , , 
0.0794423, -0.0829175, 2.0655, 2.195122, 2.0655, 18.5365849, 2.0655, -1.2195122, 0.0794423, 0.0213169, 2.0655, -9.0243902, 2.0655, 7.0121951, 2.0655, -0.3658537, 0.0794423, 0.2603342, 2.0655, -8.1707315, 2.0655, -8.5975609, 2.0655, 3.9024391, 0.0794423, -0.0031891, 2.0655, 21.8292694, 2.0655, 0.6097561, 2.0655, 1.1585366, 0.0794423, -0.057908, 2.0655, 6.8292685, 2.0655, 1.5853659, 2.0655, 2.9268293, 0.0794423, 0.0075532, 2.0655, -2.6219513, 2.0655, 5.8536587, 2.0655, -0.2439024, 0.0794423, 0, 2.0655, -18.7195129, 2.0655, 3.1707318, 2.0655, -0.4878049, 0.0794423, 0.0313878, 2.0655, -14.3902445, 2.0655, -0.7317073, 2.0655, 0.1219512, , , , , , , , , , , , , , , , , , , , , , 
0.0799615, -0.0802319, 2.079, 1.5853659, 2.079, 16.2195129, 2.079, -1.5243902, 0.0799615, 0.0139315, 2.079, -8.719512, 2.079, 5.1829271, 2.079, 0.0609756, 0.0799615, 0.2992752, 2.079, -6.2195125, 2.079, -14.3902445, 2.079, 1.402439, 0.0799615, 0.0050355, 2.079, 24.7560978, 2.079, 6.4024391, 2.079, 2.0731707, 0.0799615, -0.0532082, 2.079, 6.2195125, 2.079, 4.4512196, 2.079, 4.0853658, 0.0799615, 0.0132601, 2.079, -0.6707317, 2.079, -0.2439024, 2.079, -0.2439024, 0.0799615, 0, 2.079, -18.2926826, 2.079, 5.8536587, 2.079, -0.5487805, 0.0799615, 0.0280308, 2.079, -17.1341476, 2.079, 7.5, 2.079, 0.3658537, , , , , , , , , , , , , , , , , , , , , , 
0.0804808, -0.0760357, 2.0925, 1.3414634, 2.0925, 9.3902445, 2.0925, -2.9878049, 0.0804808, 0.0068818, 2.0925, -7.3170733, 2.0925, 0.5487805, 2.0925, 0.1829268, 0.0804808, 0.2606699, 2.0925, -6.6463418, 2.0925, -16.3414631, 2.0925, 1.0365853, 0.0804808, -0.0164492, 2.0925, 24.5731716, 2.0925, 5.7317076, 2.0925, 2.4390244, 0.0804808, -0.0475013, 2.0925, 6.1585369, 2.0925, 6.4634147, 2.0925, 5.0609756, 0.0804808, 0.0248417, 2.0925, -0.1219512, 2.0925, 0.4878049, 2.0925, 0.1829268, 0.0804808, 0, 2.0925, -19.1463413, 2.0925, 7.0121951, 2.0925, -0.4878049, 0.0804808, 0.0179599, 2.0925, -18.2317085, 2.0925, 10.2439022, 2.0925, 0.6097561, , , , , , , , , , , , , , , , , , , , , , 
0.081, -0.0679789, 2.106, 3.2317073, 2.106, 4.7560978, 2.106, -3.9634147, 0.081, 0.0052033, 2.106, -5.9756098, 2.106, -3.1097562, 2.106, -0.9756098, 0.081, 0.2123293, 2.106, -8.0487804, 2.106, -10.9146347, 2.106, 1.7682927, 0.081, -0.0605936, 2.106, 22.2560978, 2.106, 0.7317073, 2.106, 1.7073171, 0.081, -0.0417945, 2.106, 6.5243902, 2.106, 7.5, 2.106, 6.0975609, 0.081, 0.0223239, 2.106, -0.3048781, 2.106, 6.2195125, 2.106, 0.1219512, 0.081, -0.0387732, 2.106, -20.1219521, 2.106, 7.3170733, 2.106, -0.7926829, 0.081, 0.0085603, 2.106, -16.0365849, 2.106, 9.0243902, 2.106, 0.7317073, , , , , , , , , , , , , , , , , , , , , , 
0.0815192, -0.0599222, 2.1195, 4.2682929, 2.1195, 4.9390244, 2.1195, -4.3292685, 0.0815192, 0.008896, 2.1195, -5.9146342, 2.1195, -7.8048782, 2.1195, -2.195122, 0.0815192, 0.1633173, 2.1195, -9.2073174, 2.1195, -2.5, 2.1195, 2.6829269, 0.0815192, -0.0797284, 2.1195, 20.3048782, 2.1195, -5, 2.1195, 2.6219513, 0.0815192, -0.0360876, 2.1195, 6.7682929, 2.1195, 7.3170733, 2.1195, 6.5243902, 0.0815192, 0.0031891, 2.1195, -1.2804878, 2.1195, 14.4512196, 2.1195, 0, 0.0815192, -0.0438087, 2.1195, -20.1829281, 2.1195, 7.9268293, 2.1195, -0.7926829, 0.0815192, 0.0105745, 2.1195, -15.1829271, 2.1195, 1.7073171, 2.1195, 0.2439024, , , , , , , , , , , , , , , , , , , , , , 
0.0820385, -0.0558938, 2.133, 3.2317073, 2.133, 4.6951222, 2.133, -4.3292685, 0.0820385, 0.0092317, 2.133, -5.609756, 2.133, -8.9024391, 2.133, -2.3170731, 0.0820385, 0.0950027, 2.133, -9.8170738, 2.133, 3.5975611, 2.133, 2.5609756, 0.0820385, -0.0461585, 2.133, 19.7560978, 2.133, -8.4756098, 2.133, 3.9634147, 0.0820385, -0.0288701, 2.133, 7.0731707, 2.133, 7.6219516, 2.133, 7.1951222, 0.0820385, -0.0151064, 2.133, -1.2804878, 2.133, 18.3536587, 2.133, 0.3048781, 0.0820385, -0.0372625, 2.133, -19.6341476, 2.133, 8.719512, 2.133, -0.3048781, 0.0820385, 0.0132601, 2.133, -16.8292694, 2.133, -4.0243902, 2.133, -0.3048781, , , , , , , , , , , , , , , , , , , , , , 
0.0825577, -0.0580758, 2.1465, 1.8292683, 2.1465, 3.2317073, 2.1465, -4.8780489, 0.0825577, 0.0052033, 2.1465, -6.3414636, 2.1465, -7.6829271, 2.1465, -0.7317073, 0.0825577, 0.0238346, 2.1465, -7.5609756, 2.1465, 3.4756098, 2.1465, 0.8536586, 0.0825577, -0.002182, 2.1465, 18.5365849, 2.1465, -6.5243902, 2.1465, 3.2317073, 0.0825577, -0.024506, 2.1465, 7.6829271, 2.1465, 9.3292685, 2.1465, 6.6463418, 0.0825577, -0.0218204, 2.1465, -0.9146342, 2.1465, 18.2926826, 2.1465, 0.3048781, 0.0825577, -0.0297093, 2.1465, -20.4878044, 2.1465, 10.6707315, 2.1465, 0.7926829, 0.0825577, 0.0117494, 2.1465, -15.6097565, 2.1465, -5, 2.1465, -0.7926829, , , , , , , , , , , , , , , , , , , , , , 
0.0830769, -0.063447, 2.16, 0.3658537, 2.16, 2.804878, 2.16, -5.1829271, 0.0830769, -0.0008392, 2.16, -5.7317076, 2.16, -6.2195125, 2.16, 0.4878049, 0.0830769, -0.0216526, 2.16, -8.9634151, 2.16, 0.6097561, 2.16, -1.5243902, 0.0830769, 0.0038605, 2.16, 17.9878044, 2.16, -3.1097562, 2.16, 1.0365853, 0.0830769, -0.0219883, 2.16, 8.4146347, 2.16, 10.9756098, 2.16, 6.280488, 0.0830769, -0.024506, 2.16, 1.3414634, 2.16, 15.4878054, 2.16, -0.2439024, 0.0830769, -0.0240024, 2.16, -20.8536587, 2.16, 11.5853662, 2.16, 1.2804878, 0.0830769, 0.0125887, 2.16, -12.560976, 2.16, -0.8536586, 2.16, -0.9756098, , , , , , , , , , , , , , , , , , , , , , 
0.0835962, -0.0674754, 2.1735, -2.1341465, 2.1735, 2.804878, 2.1735, -5.8536587, 0.0835962, -0.002182, 2.1735, -5.2439027, 2.1735, -6.2195125, 2.1735, 0.3048781, 0.0835962, -0.0377661, 2.1735, -12.9268293, 2.1735, 6.4634147, 2.1735, -3.3536587, 0.0835962, -0.0172885, 2.1735, 19.4512196, 2.1735, 1.7073171, 2.1735, -0.3658537, 0.0835962, -0.0199741, 2.1735, 10.060976, 2.1735, 9.4512196, 2.1735, 7.1341467, 0.0835962, -0.0263523, 2.1735, 4.4512196, 2.1735, 18.6585369, 2.1735, -1.6463414, 0.0835962, -0.0243381, 2.1735, -22.8658543, 2.1735, 11.7073174, 2.1735, 0.6097561, 0.0835962, 0.014435, 2.1735, -12.5, 2.1735, 5.1219511, 2.1735, -0.6097561, , , , , , , , , , , , , , , , , , , , , , 
0.0841154, -0.0713359, 2.187, -4.2073174, 2.187, 1.7682927, 2.187, -6.6463418, 0.0841154, 0.0028534, 2.187, -5.1829271, 2.187, -8.3536587, 2.187, -0.1219512, 0.0841154, -0.0243381, 2.187, -13.841464, 2.187, 11.280488, 2.187, -3.8414636, 0.0841154, -0.0441444, 2.187, 20.6097565, 2.187, 7.3170733, 2.187, -1.2195122, 0.0841154, -0.0182956, 2.187, 10.3048782, 2.187, 10.4878054, 2.187, 9.5121956, 0.0841154, -0.0317235, 2.187, 5.1219511, 2.187, 28.5975609, 2.187, -2.3170731, 0.0841154, -0.0290379, 2.187, -24.3292694, 2.187, 10.9146347, 2.187, -1.5853659, 0.0841154, 0.0082246, 2.187, -12.6829271, 2.187, 11.5853662, 2.187, -0.4268293, , , , , , , , , , , , , , , , , , , , , , 
0.0846346, -0.0746929, 2.2005, -6.0975609, 2.2005, -1.097561, 2.2005, -6.1585369, 0.0846346, 0.0109102, 2.2005, -4.5121951, 2.2005, -12.2560978, 2.2005, -0.7317073, 0.0846346, -0.002182, 2.2005, -14.5731707, 2.2005, 19.4512196, 2.2005, -3.0487804, 0.0846346, -0.0441444, 2.2005, 19.5731716, 2.2005, 11.4634151, 2.2005, -1.9512196, 0.0846346, -0.0129244, 2.2005, 8.6585369, 2.2005, 12.3780489, 2.2005, 11.7073174, 0.0846346, -0.0542153, 2.2005, 4.390244, 2.2005, 38.7804871, 2.2005, -1.2195122, 0.0846346, -0.040116, 2.2005, -23.5365868, 2.2005, 12.2560978, 2.2005, -2.4390244, 0.0846346, 0.0025177, 2.2005, -11.4634151, 2.2005, 13.780488, 2.2005, -0.7317073, , , , , , , , , , , , , , , , , , , , , , 
0.0851538, -0.0762036, 2.214, -8.5365858, 2.214, -6.0975609, 2.214, -5.1829271, 0.0851538, 0.0219883, 2.214, -3.0487804, 2.214, -15.060976, 2.214, -1.402439, 0.0851538, 0.0025177, 2.214, -12.8658543, 2.214, 23.1097565, 2.214, -2.9878049, 0.0851538, -0.0218204, 2.214, 18.9634151, 2.214, 12.3780489, 2.214, -2.195122, 0.0851538, -0.0043641, 2.214, 7.8048782, 2.214, 15.4268293, 2.214, 11.8902445, 0.0851538, -0.0829175, 2.214, 4.5121951, 2.214, 40.1219521, 2.214, -0.2439024, 0.0851538, -0.0565652, 2.214, -22.439024, 2.214, 15.6707325, 2.214, -1.6463414, 0.0851538, 0.0105745, 2.214, -9.2073174, 2.214, 17.560976, 2.214, -2.3780489, , , , , , , , , , , , , , , , , , , , , , 
0.0856731, -0.0767071, 2.2275, -11.280488, 2.2275, -11.8902445, 2.2275, -5.3048782, 0.0856731, 0.030045, 2.2275, -1.2195122, 2.2275, -15.1829271, 2.2275, -1.6463414, 0.0856731, -0.0102388, 2.2275, -13.9024391, 2.2275, 15, 2.2275, -4.7560978, 0.0856731, -0.0330663, 2.2275, 18.0487804, 2.2275, 15.7926836, 2.2275, -3.1707318, 0.0856731, 0.0045319, 2.2275, 9.6951218, 2.2275, 16.280489, 2.2275, 10.1829271, 0.0856731, -0.0877852, 2.2275, 6.5853658, 2.2275, 32.7439041, 2.2275, -1.402439, 0.0856731, -0.0686503, 2.2275, -22.8658543, 2.2275, 18.1097565, 2.2275, -0.2439024, 0.0856731, 0.0250095, 2.2275, -8.2926826, 2.2275, 21.7682934, 2.2275, -3.9024391, , , , , , , , , , , , , , , , , , , , , , 
0.0861923, -0.0713359, 2.241, -12.3780489, 2.241, -14.2073174, 2.241, -5.7317076, 0.0861923, 0.0330663, 2.241, 1.5853659, 2.241, -16.2195129, 2.241, -2.0731707, 0.0861923, -0.0146029, 2.241, -14.3292685, 2.241, 7.3170733, 2.241, -6.4024391, 0.0861923, -0.0538796, 2.241, 15.6707325, 2.241, 22.3780499, 2.241, -4.7560978, 0.0861923, 0.0135958, 2.241, 12.560976, 2.241, 15.5487804, 2.241, 7.6829271, 0.0861923, -0.0558938, 2.241, 8.841464, 2.241, 24.6341476, 2.241, -2.5, 0.0861923, -0.0666361, 2.241, -24.4512196, 2.241, 15.6707325, 2.241, 1.402439, 0.0861923, 0.0307164, 2.241, -5.670732, 2.241, 24.7560978, 2.241, -4.5731707, , , , , , , , , , , , , , , , , , , , , , 
0.0867115, -0.0585794, 2.2545, -12.4390249, 2.2545, -17.439024, 2.2545, -6.5243902, 0.0867115, 0.0392767, 2.2545, 5.609756, 2.2545, -20, 2.2545, -2.2560976, 0.0867115, -0.0095674, 2.2545, -14.3292685, 2.2545, -1.9512196, 2.2545, -6.890244, 0.0867115, -0.0263523, 2.2545, 13.2317076, 2.2545, 29.8170738, 2.2545, -4.4512196, 0.0867115, 0.0213169, 2.2545, 12.9878054, 2.2545, 16.280489, 2.2545, 5.2439027, 0.0867115, -0.0008392, 2.2545, 9.5121956, 2.2545, 15.9756098, 2.2545, -2.804878, 0.0867115, -0.0501869, 2.2545, -24.0243912, 2.2545, 16.1585369, 2.2545, 3.7804878, 0.0867115, 0.0307164, 2.2545, -4.5121951, 2.2545, 20.9756107, 2.2545, -6.0975609, , , , , , , , , , , , , , , , , , , , , , 
0.0872308, -0.0411231, 2.268, -11.0365858, 2.268, -20, 2.268, -6.5243902, 0.0872308, 0.0589151, 2.268, 8.0487804, 2.268, -23.5365868, 2.268, -1.9512196, 0.0872308, -0.0270237, 2.268, -11.7682934, 2.268, -9.1463413, 2.268, -7.9268293, 0.0872308, 0.0238346, 2.268, 10.7926836, 2.268, 20.9146347, 2.268, -2.5609756, 0.0872308, 0.0236667, 2.268, 11.7682934, 2.268, 17.8048782, 2.268, 4.1463413, 0.0872308, 0.0491798, 2.268, 10.3048782, 2.268, 9.1463413, 2.268, -2.4390244, 0.0872308, -0.0297093, 2.268, -24.3292694, 2.268, 18.1097565, 2.268, 4.3292685, 0.0872308, 0.023331, 2.268, -5.9756098, 2.268, 14.5121956, 2.268, -7.8658538, , , , , , , , , , , , , , , , , , , , , , 
0.08775, -0.023331, 2.2815, -10.2439022, 2.2815, -21.1585369, 2.2815, -4.4512196, 0.08775, 0.0904707, 2.2815, 6.4024391, 2.2815, -25.9146347, 2.2815, -2.0731707, 0.08775, -0.0762036, 2.2815, -12.3170738, 2.2815, -9.1463413, 2.2815, -9.2073174, 0.08775, 0.0451514, 2.2815, 9.2073174, 2.2815, 9.4512196, 2.2815, -1.8292683, 0.08775, 0.023331, 2.2815, 9.8780489, 2.2815, 17.8658543, 2.2815, 4.2073174, 0.08775, 0.06009, 2.2815, 11.8292685, 2.2815, 11.5853662, 2.2815, -2.3170731, 0.08775, -0.0164492, 2.2815, -22.6219521, 2.2815, 17.1951218, 2.2815, 2.1341465, 0.08775, 0.0105745, 2.2815, -6.9512196, 2.2815, 10.060976, 2.2815, -8.2926826, , , , , , , , , , , , , , , , , , , , , , 
