Application:, Trigno Discover (2.0.1.3)
Date/Time:, 04-Nov-25 14:23:16
Collection Length (seconds):, 2.997
 Hamstrings right (85641), Hamstrings right (85641), Hamstrings right (85641), Hamstrings right (85641), Hamstrings right (85641), Hamstrings right (85641), Hamstrings right (85641), Hamstrings right (85641),  Rectus Femoris right (85844),  Rectus Femoris right (85844),  Rectus Femoris right (85844),  Rectus Femoris right (85844),  Rectus Femoris right (85844),  Rectus Femoris right (85844),  Rectus Femoris right (85844),  Rectus Femoris right (85844),  Gastrocnemius left (85904), , , , , , , , TibilaisÂ Anterior right (85650), , , , , , , ,  Hamstrings left (85586), , , , , , , , TibilaisÂ Anterior left (85605), , , , , , , ,  Rectus Femoris left (85878), , , , , , , ,  Gastrocnemius right (85873)
EMG 1 Time Series (s), EMG 1 (mV), GYRO X Time Series (s), GYRO X (deg/s), GYRO Y Time Series (s), GYRO Y (deg/s), GYRO Z Time Series (s), GYRO Z (deg/s), EMG 1 Time Series (s), EMG 1 (mV), GYRO X Time Series (s), GYRO X (deg/s), GYRO Y Time Series (s), GYRO Y (deg/s), GYRO Z Time Series (s), GYRO Z (deg/s), EMG 1 Time Series (s), EMG 1 (mV), GYRO X Time Series (s), GYRO X (deg/s), GYRO Y Time Series (s), GYRO Y (deg/s), GYRO Z Time Series (s), GYRO Z (deg/s), EMG 1 Time Series (s), EMG 1 (mV), GYRO X Time Series (s), GYRO X (deg/s), GYRO Y Time Series (s), GYRO Y (deg/s), GYRO Z Time Series (s), GYRO Z (deg/s), EMG 1 Time Series (s), EMG 1 (mV), GYRO X Time Series (s), GYRO X (deg/s), GYRO Y Time Series (s), GYRO Y (deg/s), GYRO Z Time Series (s), GYRO Z (deg/s), EMG 1 Time Series (s), EMG 1 (mV), GYRO X Time Series (s), GYRO X (deg/s), GYRO Y Time Series (s), GYRO Y (deg/s), GYRO Z Time Series (s), GYRO Z (deg/s), EMG 1 Time Series (s), EMG 1 (mV), GYRO X Time Series (s), GYRO X (deg/s), GYRO Y Time Series (s), GYRO Y (deg/s), GYRO Z Time Series (s), GYRO Z (deg/s), EMG 1 Time Series (s), EMG 1 (mV), GYRO X Time Series (s), GYRO X (deg/s), GYRO Y Time Series (s), GYRO Y (deg/s), GYRO Z Time Series (s), GYRO Z (deg/s)
0, -0.0135958, 0, 56.341465, 0, 35.0609779, 0, 83.5365906, 0, 0.0105745, 0, -95.1219559, 0, -61.1585388, 0, -60, 0, -0.0330663, 0, 180.4268341, 0, -148.1707306, 0, 18.8414631, 0, 0.002182, 0, 8.9634151, 0, -79.8170776, 0, -82.2560959, 0, -0.0041962, 0, -135.6707306, 0, -67.8048782, 0, -48.3536606, 0, 0.0253452, 0, -132.3780518, 0, -83.4146347, 0, 161.5853729, 0, 0.0001678, 0, 111.4024429, 0, -17.0731716, 0, 14.6951227, 0, -0.0030213, 0, 80, 0, -46.1585388, 0, 8.5365858, , , , , , , , , , , , , , , , , , , , , , 
0.0005192, -0.0691539, 0.0135, 123.1707382, 0.0135, 73.0487823, 0.0135, 60.18293, 0.0005192, 0.0119173, 0.0135, -128.8414612, 0.0135, -27.8658543, 0.0135, -22.560976, 0.0005192, -0.0317235, 0.0135, 173.6585388, 0.0135, -69.1463394, 0.0135, -8.1707315, 0.0005192, -0.0015106, 0.0135, -37.3780479, 0.0135, -97.8048782, 0.0135, -14.6341467, 0.0005192, -0.0063783, 0.0135, -142.1951294, 0.0135, -120.5487823, 0.0135, -54.3292694, 0.0005192, 0.0287022, 0.0135, -110.6097565, 0.0135, -56.1585388, 0.0135, 159.4512177, 0.0005192, 0.011078, 0.0135, 176.1585388, 0.0135, 45.3048782, 0.0135, 22.560976, 0.0005192, 0.0011749, 0.0135, 41.2195129, 0.0135, -84.6951218, 0.0135, -82.3780518, , , , , , , , , , , , , , , , , , , , , , 
0.0010385, -0.1149767, 0.027, 137.4390259, 0.027, -1.2195122, 0.027, 51.5243912, 0.0010385, 0.0129244, 0.027, -128.1707306, 0.027, -13.9634151, 0.027, 30.7317085, 0.0010385, -0.0320592, 0.027, 174.6341553, 0.027, -57.0731735, 0.027, -27.5, 0.0010385, -0.0025177, 0.027, -74.3902435, 0.027, -38.4146347, 0.027, -60.5487823, 0.0010385, -0.0068818, 0.027, -142.0121918, 0.027, -141.1585388, 0.027, -58.7195129, 0.0010385, 0.0287022, 0.027, -93.9024429, 0.027, 73.4756088, 0.027, 151.9512177, 0.0010385, 0.0169528, 0.027, 173.0487823, 0.027, 63.1707344, 0.027, 26.1585369, 0.0010385, 0.002182, 0.027, 21.7682934, 0.027, -53.9634171, 0.027, -120.6097565, , , , , , , , , , , , , , , , , , , , , , 
0.0015577, -0.1507286, 0.0405, 17.9878044, 0.0405, 4.5731707, 0.0405, 26.7682934, 0.0015577, 0.0105745, 0.0405, -40.4878044, 0.0405, 48.7804871, 0.0405, 24.3292694, 0.0015577, -0.0315557, 0.0405, 205.9146423, 0.0405, -86.7073212, 0.0405, -32.6219521, 0.0015577, -0.0016785, 0.0405, -94.4512253, 0.0405, 91.2804871, 0.0405, -141.5243988, 0.0015577, -0.0068818, 0.0405, -156.2195129, 0.0405, -89.7560959, 0.0405, -61.9512215, 0.0015577, 0.0052033, 0.0405, -104.146347, 0.0405, 103.4146347, 0.0405, 149.4512177, 0.0015577, 0.0196384, 0.0405, 136.5853729, 0.0405, -29.6341476, 0.0405, -0.6707317, 0.0015577, 0.0025177, 0.0405, 200.1829376, 0.0405, 18.0487804, 0.0405, 32.3170738, , , , , , , , , , , , , , , , , , , , , , 
0.0020769, -0.1831235, 0.054, -64.6951218, 0.054, 63.9024391, 0.054, 19.939024, 0.0020769, 0.0085603, 0.054, 12.5, 0.054, 52.4390259, 0.054, -48.0487823, 0.0020769, -0.0288701, 0.054, 245.5487823, 0.054, 36.9512215, 0.054, -44.3292694, 0.0020769, 0.0085603, 0.054, -15.1829271, 0.054, 116.1585388, 0.054, -138.9634247, 0.0020769, -0.0063783, 0.054, -171.0975647, 0.054, 33.1097565, 0.054, -63.7804909, 0.0020769, -0.0240024, 0.054, -104.2073212, 0.054, 150.9756165, 0.054, 156.8902435, 0.0020769, 0.0172885, 0.054, 160.3048859, 0.054, -28.4756107, 0.054, -40, 0.0020769, 0.0025177, 0.054, 140.7317047, 0.054, 231.0365906, 0.054, 74.7560959, , , , , , , , , , , , , , , , , , , , , , 
0.0025962, -0.2123293, 0.0675, 0, 0.0675, 0, 0.0675, 0, 0.0025962, 0.0052033, 0.0675, 14.0853662, 0.0675, -43.9024391, 0.0675, -48.9024391, 0.0025962, -0.0256809, 0.0675, 130.7926788, 0.0675, 297.6829224, 0.0675, -71.7073212, 0.0025962, 0.0172885, 0.0675, -20.1829281, 0.0675, 72.3170776, 0.0675, -114.0243912, 0.0025962, -0.0063783, 0.0675, -155.7317047, 0.0675, 149.2682953, 0.0675, -47.0121956, 0.0025962, -0.0391089, 0.0675, -59.5731735, 0.0675, 180.7317047, 0.0675, 154.8780518, 0.0025962, 0.0099031, 0.0675, 181.7682953, 0.0675, 8.3536587, 0.0675, -40.3658562, 0.0025962, 0.002182, 0.0675, 85.1219559, 0.0675, 143.1097565, 0.0675, 16.7682934, , , , , , , , , , , , , , , , , , , , , , 
0.0031154, -0.2351568, 0.081, -12.0121956, 0.081, 10.9756098, 0.081, 24.6341476, 0.0031154, 0.0038605, 0.081, -30.4878063, 0.081, -8.5975609, 0.081, -42.5, 0.0031154, -0.0238346, 0.081, -3.7195122, 0.081, 401.0975647, 0.081, -76.7682953, 0.0031154, 0.0176242, 0.081, -35.1829262, 0.081, 36.4634171, 0.081, -93.8414688, 0.0031154, -0.0068818, 0.081, -177.7439117, 0.081, 182.5609741, 0.081, -28.3536587, 0.0031154, -0.047837, 0.081, 3.5365853, 0.081, 223.7804871, 0.081, 113.8414688, 0.0031154, -0.0001678, 0.081, 192.8048859, 0.081, 43.9024391, 0.081, -17.3170738, 0.0031154, 0.0030213, 0.081, 71.3414688, 0.081, 5.3048782, 0.081, -51.7682953, , , , , , , , , , , , , , , , , , , , , , 
0.0036346, -0.2519417, 0.0945, 51.9512215, 0.0945, 30.9756107, 0.0945, 33.0487823, 0.0036346, 0.0025177, 0.0945, -33.2317085, 0.0945, 84.3292694, 0.0945, -28.1707325, 0.0036346, -0.0246738, 0.0945, -64.2073212, 0.0945, 296.5243835, 0.0945, -46.0365868, 0.0036346, 0.0186313, 0.0945, -22.8658543, 0.0945, -29.5731716, 0.0945, -77.7439041, 0.0036346, -0.0068818, 0.0945, -189.6951294, 0.0945, 199.8780518, 0.0945, -21.1585369, 0.0036346, -0.0475013, 0.0945, 33.5975609, 0.0945, 239.146347, 0.0945, 57.5, 0.0036346, -0.008896, 0.0945, 178.3536682, 0.0945, 16.9512196, 0.0945, -18.4146347, 0.0036346, 0.0038605, 0.0945, 83.8414688, 0.0945, -37.3170738, 0.0945, -26.4024391, , , , , , , , , , , , , , , , , , , , , , 
0.0041538, -0.2665446, 0.108, 96.2195129, 0.108, 30.4878063, 0.108, 35.9146347, 0.0041538, -0.0015106, 0.108, -51.1585388, 0.108, 40.3048782, 0.108, -11.219512, 0.0041538, -0.0256809, 0.108, -100.9146347, 0.108, 159.3292694, 0.108, 4.0853658, 0.0041538, 0.0256809, 0.108, -7.7439027, 0.108, -51.2195129, 0.108, -87.5609741, 0.0041538, -0.0077211, 0.108, -187.9268341, 0.108, 220, 0.108, -20.7317085, 0.0041538, -0.0431373, 0.108, 37.2560997, 0.108, 187.1341553, 0.108, -6.280488, 0.0041538, -0.0162814, 0.108, 161.0975647, 0.108, 17.0731716, 0.108, -23.780489, 0.0041538, 0.0028534, 0.108, 112.1951218, 0.108, -46.7073174, 0.108, 7.9268293, , , , , , , , , , , , , , , , , , , , , , 
0.0046731, -0.2784619, 0.1215, 109.7561035, 0.1215, 30.6097565, 0.1215, 41.341465, 0.0046731, -0.0048676, 0.1215, -84.7560959, 0.1215, 38.5975609, 0.1215, -9.3902445, 0.0046731, -0.0226596, 0.1215, -137.9878082, 0.1215, 57.5, 0.1215, 33.1707306, 0.0046731, 0.0344091, 0.1215, -6.7073174, 0.1215, -20.5487804, 0.1215, -86.8292694, 0.0046731, -0.0083925, 0.1215, -181.2804871, 0.1215, 181.5243988, 0.1215, -45, 0.0046731, -0.0540475, 0.1215, 51.5243912, 0.1215, 103.2926865, 0.1215, -64.0243912, 0.0046731, -0.0229953, 0.1215, 164.0853729, 0.1215, 14.2682934, 0.1215, -17.1341476, 0.0046731, 0.0001678, 0.1215, 98.4756088, 0.1215, -2.3780489, 0.1215, 9.4512196, , , , , , , , , , , , , , , , , , , , , , 
0.0051923, -0.286183, 0.135, 124.0243912, 0.135, 56.1585388, 0.135, 60.4268303, 0.0051923, -0.0072175, 0.135, -91.1585388, 0.135, 61.5853691, 0.135, -30.7317085, 0.0051923, -0.023331, 0.135, -161.2804871, 0.135, -24.2073174, 0.135, 24.3292694, 0.0051923, 0.0364233, 0.135, -7.2560978, 0.135, 33.4756088, 0.135, -81.3414688, 0.0051923, -0.011078, 0.135, -183.3536682, 0.135, 92.4390259, 0.135, -76.5243912, 0.0051923, -0.0656291, 0.135, 75.3048782, 0.135, 8.4756098, 0.135, -103.9024429, 0.0051923, -0.0297093, 0.135, 169.5731812, 0.135, 0.2439024, 0.135, -7.1341467, 0.0051923, -0.002182, 0.135, 76.8292694, 0.135, 82.3780518, 0.135, 8.2926826, , , , , , , , , , , , , , , , , , , , , , 
0.0057115, -0.2915541, 0.1485, 93.9634171, 0.1485, 66.2195129, 0.1485, 72.3780518, 0.0057115, -0.0102388, 0.1485, -70.9756088, 0.1485, 66.6463394, 0.1485, -45.9146347, 0.0057115, -0.0270237, 0.1485, -164.7561035, 0.1485, -100.0609818, 0.1485, -5.7317076, 0.0057115, 0.0199741, 0.1485, -2.5, 0.1485, 54.0243912, 0.1485, -77.0121994, 0.0057115, -0.0149386, 0.1485, -172.0731812, 0.1485, 1.2195122, 0.1485, -96.9512253, 0.0057115, -0.0516976, 0.1485, 99.146347, 0.1485, -50.9756126, 0.1485, -130.4878082, 0.0057115, -0.0379339, 0.1485, 172.6829376, 0.1485, 0.0609756, 0.1485, -1.1585366, 0.0057115, -0.0048676, 0.1485, 68.7804871, 0.1485, 93.4146347, 0.1485, 11.6463413, , , , , , , , , , , , , , , , , , , , , , 
0.0062308, -0.2955825, 0.162, 61.7682953, 0.162, 20.6707325, 0.162, 63.2317085, 0.0062308, -0.012253, 0.162, -85.4268341, 0.162, 20.3658543, 0.162, -41.8292694, 0.0062308, -0.0276951, 0.162, -169.146347, 0.162, -121.2195129, 0.162, -20.7926826, 0.0062308, 0.0005035, 0.162, 2.9268293, 0.162, 43.9024391, 0.162, -66.8292694, 0.0062308, -0.0164492, 0.162, -176.8292694, 0.162, -40.6707344, 0.162, -102.3780518, 0.0062308, -0.0243381, 0.162, 115.0609818, 0.162, -86.7073212, 0.162, -152.2561035, 0.0062308, -0.0441444, 0.162, 186.7682953, 0.162, 18.3536587, 0.162, 3.5365853, 0.0062308, -0.0068818, 0.162, 55.8536606, 0.162, 65.7317123, 0.162, 15.1829271, , , , , , , , , , , , , , , , , , , , , , 
0.00675, -0.2977646, 0.1755, 91.8292694, 0.1755, 14.3292685, 0.1755, 56.341465, 0.00675, -0.012253, 0.1755, -104.2073212, 0.1755, 4.4512196, 0.1755, -42.3170738, 0.00675, -0.0270237, 0.1755, -188.7195129, 0.1755, -129.4512177, 0.1755, -40.6097565, 0.00675, -0.0104067, 0.1755, 6.1585369, 0.1755, 33.7804871, 0.1755, -51.5243912, 0.00675, -0.014435, 0.1755, -197.1951294, 0.1755, -9.2073174, 0.1755, -83.6585388, 0.00675, -0.0082246, 0.1755, 128.9024353, 0.1755, -105.0609818, 0.1755, -177.6219482, 0.00675, -0.04448, 0.1755, 191.8902435, 0.1755, 43.5975609, 0.1755, 3.1097562, 0.00675, -0.0068818, 0.1755, 46.8902435, 0.1755, 36.4634171, 0.1755, 13.2317076, , , , , , , , , , , , , , , , , , , , , , 
0.0072692, -0.2975967, 0.189, 130.36586, 0.189, 17.6219521, 0.189, 61.2804909, 0.0072692, -0.0095674, 0.189, -124.5121994, 0.189, 14.0243902, 0.189, -47.5, 0.0072692, -0.026688, 0.189, -210.9146423, 0.189, -126.7682953, 0.189, -36.341465, 0.0072692, -0.012253, 0.189, 15.7317076, 0.189, 31.4024391, 0.189, -37.1341476, 0.0072692, -0.01561, 0.189, -201.8292694, 0.189, 47.9878044, 0.189, -51.5243912, 0.0072692, -0.0179599, 0.189, 140.8536682, 0.189, -108.3536606, 0.189, -210.6097565, 0.0072692, -0.040116, 0.189, 186.8292694, 0.189, 61.4024391, 0.189, -0.1219512, 0.0072692, -0.0052033, 0.189, 29.4512196, 0.189, 35.4878044, 0.189, 14.7560978, , , , , , , , , , , , , , , , , , , , , , 
0.0077885, -0.2942397, 0.2025, 159.6341553, 0.2025, 16.280489, 0.2025, 46.4024391, 0.0077885, -0.0075532, 0.2025, -145.4878082, 0.2025, 35.1829262, 0.2025, -44.8170738, 0.0077885, -0.0260166, 0.2025, -247.012207, 0.2025, -131.8902435, 0.2025, -6.9512196, 0.0077885, -0.0246738, 0.2025, 21.7682934, 0.2025, 32.2560997, 0.2025, -26.280489, 0.0077885, -0.0184634, 0.2025, -187.7439117, 0.2025, 102.68293, 0.2025, -20.060976, 0.0077885, -0.043473, 0.2025, 144.6341553, 0.2025, -102.5, 0.2025, -229.5731812, 0.0077885, -0.0327306, 0.2025, 169.2682953, 0.2025, 84.9390259, 0.2025, -4.3292685, 0.0077885, -0.0006714, 0.2025, 13.780488, 0.2025, 11.219512, 0.2025, 17.9268303, , , , , , , , , , , , , , , , , , , , , , 
0.0083077, -0.2875257, 0.216, 222.4390259, 0.216, -19.2073174, 0.216, 9.0243902, 0.0083077, -0.0030213, 0.216, -167.0731812, 0.216, 67.3170776, 0.216, -34.7560997, 0.0083077, -0.0240024, 0.216, -308.4756165, 0.216, -109.146347, 0.216, 33.6585388, 0.0083077, -0.0555581, 0.216, 26.0365868, 0.216, 32.5609779, 0.216, -15.4268293, 0.0083077, -0.0203098, 0.216, -162.4390259, 0.216, 127.9878082, 0.216, -0.1829268, 0.0083077, -0.0706645, 0.216, 150.1219482, 0.216, -75.6097565, 0.216, -271.3414612, 0.0083077, -0.0256809, 0.216, 142.3780518, 0.216, 105.6097565, 0.216, -9.0853662, 0.0083077, 0.0045319, 0.216, -1.2195122, 0.216, 3.1707318, 0.216, 21.9512196, , , , , , , , , , , , , , , , , , , , , , 
0.0088269, -0.282826, 0.2295, 250.6707306, 0.2295, 59.3902435, 0.2295, 16.5243912, 0.0088269, 0.0025177, 0.2295, -194.8780518, 0.2295, 120.6707382, 0.2295, -33.9634171, 0.0088269, -0.0223239, 0.2295, -371.5244141, 0.2295, -68.0487823, 0.2295, 75.0609741, 0.0088269, -0.0874495, 0.2295, 38.9634171, 0.2295, 46.6463432, 0.2295, -7.5, 0.0088269, -0.0223239, 0.2295, -127.4390259, 0.2295, 121.2804871, 0.2295, 11.0975609, 0.0088269, -0.0834211, 0.2295, 153.8414612, 0.2295, -34.0853653, 0.2295, -314.5731812, 0.0088269, -0.0209812, 0.2295, 105.0609818, 0.2295, 100.0609818, 0.2295, -15.2439032, 0.0088269, 0.0058747, 0.2295, -19.7560978, 0.2295, 26.0975609, 0.2295, 33.841465, , , , , , , , , , , , , , , , , , , , , , 
0.0093462, -0.2781262, 0.243, 252.6219635, 0.243, 204.0243988, 0.243, 69.4512177, 0.0093462, 0.0070497, 0.243, -204.8170776, 0.243, 137.0121918, 0.243, -43.0487823, 0.0093462, -0.0198062, 0.243, -410.9146423, 0.243, -6.4024391, 0.243, 101.0975647, 0.0093462, -0.0998703, 0.243, 51.7073174, 0.243, 69.5731735, 0.243, -11.0975609, 0.0093462, -0.0238346, 0.243, -85, 0.243, 106.0975647, 0.243, 17.9268303, 0.0093462, -0.0699931, 0.243, 155.6097565, 0.243, 18.780489, 0.243, -345.6097717, 0.0093462, -0.0184634, 0.243, 72.5609741, 0.243, 99.2073212, 0.243, -18.5365849, 0.0093462, 0.003357, 0.243, -28.5975609, 0.243, 51.9512215, 0.243, 48.1707344, , , , , , , , , , , , , , , , , , , , , , 
0.0098654, -0.2714122, 0.2565, 210.2439117, 0.2565, 145.2439117, 0.2565, 113.0487823, 0.0098654, 0.0068818, 0.2565, -209.4512177, 0.2565, 139.0853729, 0.2565, -76.5243912, 0.0098654, -0.0187991, 0.2565, -429.9390259, 0.2565, 50.1219521, 0.2565, 101.7682953, 0.0098654, -0.0928206, 0.2565, 56.0975609, 0.2565, 77.4390259, 0.2565, -19.4512196, 0.0098654, -0.0253452, 0.2565, -65.9146347, 0.2565, 96.8902435, 0.2565, 20.060976, 0.0098654, -0.0438087, 0.2565, 163.9024353, 0.2565, 55.8536606, 0.2565, -358.3536682, 0.0098654, -0.0179599, 0.2565, 38.841465, 0.2565, 95.9756088, 0.2565, -17.1341476, 0.0098654, 0.0016785, 0.2565, -17.3780499, 0.2565, 79.2073212, 0.2565, 64.3902435, , , , , , , , , , , , , , , , , , , , , , 
0.0103846, -0.2626841, 0.27, 167.6219482, 0.27, 60.6097565, 0.27, 131.0365906, 0.0103846, 0.0057069, 0.27, -192.5609741, 0.27, 100.3658524, 0.27, -111.5243912, 0.0103846, -0.018967, 0.27, -429.3292847, 0.27, 55.3048782, 0.27, 77.3780518, 0.0103846, -0.081239, 0.27, 53.9024391, 0.27, 85.3048782, 0.27, -51.8292694, 0.0103846, -0.0263523, 0.27, -31.7073174, 0.27, 63.2926826, 0.27, 22.5, 0.0103846, -0.0179599, 0.27, 181.0975647, 0.27, 63.1707344, 0.27, -356.4024353, 0.0103846, -0.0172885, 0.27, 15.7926836, 0.27, 74.4512177, 0.27, -6.890244, 0.0103846, 0.0025177, 0.27, 23.9024391, 0.27, 82.6219559, 0.27, 83.5365906, , , , , , , , , , , , , , , , , , , , , , 
0.0109038, -0.2532845, 0.2835, 148.7195129, 0.2835, 26.5853672, 0.2835, 131.5853729, 0.0109038, 0.0105745, 0.2835, -158.8414612, 0.2835, 45.2439041, 0.2835, -118.8414688, 0.0109038, -0.0219883, 0.2835, -418.7195129, 0.2835, -4.4512196, 0.2835, 40.0609779, 0.0109038, -0.0565652, 0.2835, 56.9512215, 0.2835, 65.1219559, 0.2835, -77.0731735, 0.0109038, -0.0265202, 0.2835, 17.9268303, 0.2835, 0.4878049, 0.2835, 21.4634151, 0.0109038, -0.005539, 0.2835, 202.6829376, 0.2835, 26.7073174, 0.2835, -347.3780518, 0.0109038, -0.0132601, 0.2835, 6.7682929, 0.2835, 57.0731735, 0.2835, 0.8536586, 0.0109038, 0.003357, 0.2835, 47.9878044, 0.2835, 81.5243912, 0.2835, 85.5487823, , , , , , , , , , , , , , , , , , , , , , 
0.0114231, -0.244892, 0.297, 119.6341476, 0.297, -27.560976, 0.297, 125.4878082, 0.0114231, 0.0172885, 0.297, -132.8048859, 0.297, -24.8780499, 0.297, -116.7682953, 0.0114231, -0.0246738, 0.297, -407.1341553, 0.297, -103.6585388, 0.297, 6.6463418, 0.0114231, -0.0115816, 0.297, 64.1463394, 0.297, 52.3170738, 0.297, -94.8170776, 0.0114231, -0.0273594, 0.297, 80.1219559, 0.297, -75.1219559, 0.297, 19.2073174, 0.0114231, -0.0115816, 0.297, 224.7561035, 0.297, -26.9512196, 0.297, -336.5243835, 0.0114231, -0.0119173, 0.297, -7.6219516, 0.297, 6.6463418, 0.297, 15, 0.0114231, 0.0016785, 0.297, 60.6097565, 0.297, 74.3902435, 0.297, 87.0121994, , , , , , , , , , , , , , , , , , , , , , 
0.0119423, -0.2366674, 0.3105, 94.9390259, 0.3105, -35.9146347, 0.3105, 121.7682953, 0.0119423, 0.0243381, 0.3105, -102.3170776, 0.3105, -23.1097565, 0.3105, -114.0243912, 0.0119423, -0.0256809, 0.3105, -383.9634094, 0.3105, -180.4878082, 0.3105, -17.8658543, 0.0119423, 0.0137636, 0.3105, 85.6707306, 0.3105, 73.7195129, 0.3105, -108.7804871, 0.0119423, -0.0270237, 0.3105, 130.1219482, 0.3105, -115.7926865, 0.3105, 19.5121956, 0.0119423, -0.0246738, 0.3105, 232.3780518, 0.3105, -80.3048782, 0.3105, -316.5243835, 0.0119423, -0.0130922, 0.3105, -17.8048782, 0.3105, -55.1219521, 0.3105, 24.8170738, 0.0119423, -0.0043641, 0.3105, 80.3658524, 0.3105, 86.2804871, 0.3105, 95.0609741, , , , , , , , , , , , , , , , , , , , , , 
0.0124615, -0.2281071, 0.324, 69.4512177, 0.324, -22.3170738, 0.324, 128.2926788, 0.0124615, 0.0290379, 0.324, -84.5121994, 0.324, 1.7073171, 0.324, -118.4146347, 0.0124615, -0.0241703, 0.324, -350.4268494, 0.324, -188.7804871, 0.324, -25.060976, 0.0124615, 0.0008392, 0.324, 110.9756088, 0.324, 112.1341476, 0.324, -128.1707306, 0.0124615, -0.0250095, 0.324, 133.6585388, 0.324, -117.9878082, 0.324, 24.9390259, 0.0124615, -0.036759, 0.324, 211.3414612, 0.324, -161.4024353, 0.324, -294.1463623, 0.0124615, -0.011078, 0.324, -25.5487804, 0.324, -103.4756088, 0.324, 30.6707325, 0.0124615, -0.0104067, 0.324, 72.5609741, 0.324, 124.3292694, 0.324, 111.4024429, , , , , , , , , , , , , , , , , , , , , , 
0.0129808, -0.2180362, 0.3375, 46.6463432, 0.3375, -19.7560978, 0.3375, 134.9390259, 0.0129808, 0.0305486, 0.3375, -74.8780518, 0.3375, 12.560976, 0.3375, -127.1951218, 0.0129808, -0.0226596, 0.3375, -318.4146423, 0.3375, -212.3170776, 0.3375, -0.8536586, 0.0129808, -0.0406195, 0.3375, 109.3902435, 0.3375, 82.0731735, 0.3375, -178.1707306, 0.0129808, -0.0216526, 0.3375, 98.2317123, 0.3375, -93.6585388, 0.3375, 49.6951218, 0.0129808, -0.0386053, 0.3375, 172.5, 0.3375, -223.9024506, 0.3375, -273.7195129, 0.0129808, -0.0082246, 0.3375, -44.5121956, 0.3375, -148.1097565, 0.3375, 30.4268303, 0.0129808, -0.0125887, 0.3375, 73.1707306, 0.3375, 105.8536606, 0.3375, 125.1219559, , , , , , , , , , , , , , , , , , , , , , 
0.0135, -0.2052796, 0.351, 39.3902435, 0.351, -32.6219521, 0.351, 139.4512177, 0.0135, 0.0330663, 0.351, -55.9146347, 0.351, 41.341465, 0.351, -132.0121918, 0.0135, -0.0219883, 0.351, -255.8536682, 0.351, -321.3414612, 0.351, 38.4146347, 0.0135, -0.0760357, 0.351, 40.2439041, 0.351, 19.5731716, 0.351, -257.6829224, 0.0135, -0.0199741, 0.351, 10.7926836, 0.351, -131.3414612, 0.351, 93.9024429, 0.0135, -0.0231632, 0.351, 148.7195129, 0.351, -248.6585388, 0.351, -261.8292847, 0.0135, -0.0075532, 0.351, -83.1097565, 0.351, -216.8902435, 0.351, 18.1097565, 0.0135, -0.0112459, 0.351, 179.5731812, 0.351, 43.9634171, 0.351, 105.8536606, , , , , , , , , , , , , , , , , , , , , , 
0.0140192, -0.194873, 0.3645, 45.8536606, 0.3645, -44.6341476, 0.3645, 137.5, 0.0140192, 0.0392767, 0.3645, -32.4390259, 0.3645, 85.1219559, 0.3645, -129.4512177, 0.0140192, -0.0198062, 0.3645, -213.4146423, 0.3645, -328.6585388, 0.3645, 52.3170738, 0.0140192, -0.0686503, 0.3645, -64.8170776, 0.3645, 21.9512196, 0.3645, -337.7438965, 0.0140192, -0.018967, 0.3645, -65.2439041, 0.3645, -220.36586, 0.3645, 117.8048782, 0.0140192, -0.008896, 0.3645, 90.0609741, 0.3645, -259.1463623, 0.3645, -219.5731812, 0.0140192, -0.008896, 0.3645, -138.8414612, 0.3645, -297.5, 0.3645, -5.3048782, 0.0140192, -0.008896, 0.3645, 332.7438965, 0.3645, 33.3536606, 0.3645, 71.7682953, , , , , , , , , , , , , , , , , , , , , , 
0.0145385, -0.185977, 0.378, 30.2439022, 0.378, -35.2439041, 0.378, 133.4756165, 0.0145385, 0.0461585, 0.378, -32.5, 0.378, 117.5609818, 0.378, -112.0121994, 0.0145385, -0.0179599, 0.378, -121.5853653, 0.378, -251.4634247, 0.378, 69.3902435, 0.0145385, -0.0203098, 0.378, -86.7682953, 0.378, 75.2439041, 0.378, -374.2073364, 0.0145385, -0.0176242, 0.378, -92.1951218, 0.378, -432.0731812, 0.378, 90.4268341, 0.0145385, 0.0052033, 0.378, 17.0731716, 0.378, -235.9756165, 0.378, -148.3536682, 0.0145385, -0.0109102, 0.378, -168.2926941, 0.378, -399.3292847, 0.378, -18.9634151, 0.0145385, -0.0062104, 0.378, 357.0731812, 0.378, 90.6707306, 0.378, 69.0853653, , , , , , , , , , , , , , , , , , , , , , 
0.0150577, -0.178088, 0.3915, -6.6463418, 0.3915, -31.6463413, 0.3915, 142.6219482, 0.0150577, 0.0493477, 0.3915, -18.1097565, 0.3915, -107.68293, 0.3915, -106.9512253, 0.0150577, -0.0184634, 0.3915, -12.1341467, 0.3915, -207.3780518, 0.3915, 54.6341476, 0.0150577, 0.0287022, 0.3915, -5.4268293, 0.3915, 88.4756088, 0.3915, -365.0609741, 0.0150577, -0.0179599, 0.3915, -86.5853653, 0.3915, -381.2195129, 0.3915, 30.060976, 0.0150577, 0.0394446, 0.3915, -36.0975609, 0.3915, -214.146347, 0.3915, -55.0609779, 0.0150577, -0.0124208, 0.3915, -156.5243988, 0.3915, -485.243927, 0.3915, -5.9756098, 0.0150577, -0.003357, 0.3915, 289.512207, 0.3915, 144.3292694, 0.3915, 127.86586, , , , , , , , , , , , , , , , , , , , , , 
0.0155769, -0.1681849, 0.405, -31.7073174, 0.405, 14.0243902, 0.405, 153.9634247, 0.0155769, 0.0495155, 0.405, -7.3780489, 0.405, -183.5975647, 0.405, -117.9878082, 0.0155769, -0.0199741, 0.405, 71.4634171, 0.405, -131.3414612, 0.405, 15.1219511, 0.0155769, 0.0428016, 0.405, 36.8292694, 0.405, 52.5609779, 0.405, -360.4878235, 0.0155769, -0.0196384, 0.405, -96.0975647, 0.405, -274.512207, 0.405, -9.8170738, 0.0155769, 0.0817426, 0.405, -55, 0.405, -157.3780518, 0.405, 41.7073174, 0.0155769, -0.0142672, 0.405, -143.3536682, 0.405, -383.7804871, 0.405, -17.1951218, 0.0155769, 0.0005035, 0.405, 282.9878235, 0.405, 107.2561035, 0.405, 171.2804871, , , , , , , , , , , , , , , , , , , , , , 
0.0160962, -0.1567712, 0.4185, -55.1219521, 0.4185, 60.0609779, 0.4185, 98.2317123, 0.0160962, 0.047837, 0.4185, 24.3902435, 0.4185, -28.2317085, 0.4185, -106.7682953, 0.0160962, -0.0204776, 0.4185, 124.4512253, 0.4185, -79.8170776, 0.4185, -3.1097562, 0.0160962, 0.0303807, 0.4185, 54.6951218, 0.4185, -3.6585367, 0.4185, -330.6097717, 0.0160962, -0.0193027, 0.4185, -12.6829271, 0.4185, -96.5243912, 0.4185, -57.7439041, 0.0160962, 0.0955062, 0.4185, -65.3658524, 0.4185, -46.8902435, 0.4185, 98.1097565, 0.0160962, -0.0146029, 0.4185, -3.5975611, 0.4185, 65.3658524, 0.4185, -11.5853662, 0.0160962, 0.0038605, 0.4185, 270.1219482, 0.4185, -5.670732, 0.4185, 157.8048859, , , , , , , , , , , , , , , , , , , , , , 
0.0166154, -0.1451896, 0.432, -74.8170776, 0.432, 55.4878044, 0.432, 66.2195129, 0.0166154, 0.0453193, 0.432, 10.1219511, 0.432, -77.6219559, 0.432, -67.8048782, 0.0166154, -0.0206455, 0.432, 195.3048859, 0.432, -55.1219521, 0.432, 30.4268303, 0.0166154, 0.0132601, 0.432, 88.7804871, 0.432, -53.5975609, 0.432, -278.3536682, 0.0166154, -0.018967, 0.432, 45.3048782, 0.432, -35.6097565, 0.432, -33.5365868, 0.0166154, 0.0881209, 0.432, -182.6219482, 0.432, 467.5, 0.432, 129.9390259, 0.0166154, -0.0139315, 0.432, 29.2682934, 0.432, 151.5243988, 0.432, 44.6341476, 0.0166154, 0.0058747, 0.432, 219.9390259, 0.432, -101.8902435, 0.432, 135.5487823, , , , , , , , , , , , , , , , , , , , , , 
0.0171346, -0.13579, 0.4455, -128.7804871, 0.4455, -21.2195129, 0.4455, 24.4512196, 0.0171346, 0.0428016, 0.4455, 82.5, 0.4455, -175.1829376, 0.4455, -21.7073174, 0.0171346, -0.0216526, 0.4455, 56.2804909, 0.4455, 566.6463623, 0.4455, 96.8902435, 0.0171346, -0.0001678, 0.4455, 101.646347, 0.4455, -134.2682953, 0.4455, -257.1951294, 0.0171346, -0.0199741, 0.4455, 250.5487823, 0.4455, -15.6097565, 0.4455, 19.0243912, 0.0171346, 0.0760357, 0.4455, -40.6097565, 0.4455, 382.6219482, 0.4455, 173.7195129, 0.0171346, -0.0152743, 0.4455, -316.9512329, 0.4455, -22.0731716, 0.4455, -40.5487823, 0.0171346, 0.005539, 0.4455, 198.1097565, 0.4455, -119.0243912, 0.4455, 128.5365906, , , , , , , , , , , , , , , , , , , , , , 
0.0176538, -0.1277333, 0.459, -200.3048859, 0.459, -132.2561035, 0.459, -47.7439041, 0.0176538, 0.0387732, 0.459, 174.6951294, 0.459, -99.5121994, 0.459, 81.2804871, 0.0176538, -0.0216526, 0.459, 354.4512329, 0.459, 494.3902588, 0.459, -107.4390259, 0.0176538, -0.0092317, 0.459, 99.2073212, 0.459, -159.5121918, 0.459, -200.6097565, 0.0176538, -0.0213169, 0.459, -77.9268341, 0.459, 124.2073212, 0.459, -11.9512196, 0.0176538, 0.0488441, 0.459, -128.5365906, 0.459, 65.5487823, 0.459, 254.2682953, 0.0176538, -0.0142672, 0.459, 316.2804871, 0.459, 196.7073212, 0.459, -67.2560959, 0.0176538, 0.0065461, 0.459, 153.0487823, 0.459, -144.6341553, 0.459, 116.0975647, , , , , , , , , , , , , , , , , , , , , , 
0.0181731, -0.1188373, 0.4725, -350.3049011, 0.4725, -297.3170776, 0.4725, -208.7195129, 0.0181731, 0.0384375, 0.4725, 245.1829376, 0.4725, -323.4756165, 0.4725, 114.8170776, 0.0181731, -0.0209812, 0.4725, 172.7439117, 0.4725, -51.0365868, 0.4725, -50.5487823, 0.0181731, -0.0135958, 0.4725, 127.5609818, 0.4725, -105.3658524, 0.4725, -90.18293, 0.0181731, -0.0196384, 0.4725, -345.4878235, 0.4725, 134.4512177, 0.4725, 5.3658538, 0.0181731, 0.0072175, 0.4725, -77.9878082, 0.4725, 126.3414688, 0.4725, 281.8902588, 0.0181731, -0.0095674, 0.4725, 171.4634247, 0.4725, 117.7439041, 0.4725, -74.8780518, 0.0181731, 0.011078, 0.4725, 64.9390259, 0.4725, -204.9390259, 0.4725, 116.4634171, , , , , , , , , , , , , , , , , , , , , , 
0.0186923, -0.1085985, 0.486, -329.3292847, 0.486, -290.5487976, 0.486, -275.3048706, 0.0186923, 0.0374304, 0.486, 338.4146423, 0.486, -249.0853729, 0.486, 158.9634247, 0.0186923, -0.0221561, 0.486, 303.7804871, 0.486, 165.2439117, 0.486, 60.3658562, 0.0186923, -0.0172885, 0.486, 176.9512177, 0.486, -58.9024391, 0.486, 54.3292694, 0.0186923, -0.0169528, 0.486, -115.5487823, 0.486, -172.5, 0.486, -96.3414688, 0.0186923, -0.0298772, 0.486, -195.1219482, 0.486, 193.9024506, 0.486, 152.1341553, 0.0186923, -0.0048676, 0.486, 64.3292694, 0.486, -254.5731812, 0.486, 59.2073174, 0.0186923, 0.0166171, 0.486, -89.5121994, 0.486, -83.3536606, 0.486, 138.0487823, , , , , , , , , , , , , , , , , , , , , , 
0.0192115, -0.0995346, 0.4995, -374.4512329, 0.4995, -137.1951294, 0.4995, -221.0365906, 0.0192115, 0.0347448, 0.4995, 446.0365906, 0.4995, -181.8902435, 0.4995, 142.7439117, 0.0192115, -0.0243381, 0.4995, 108.9024429, 0.4995, -2.2560976, 0.4995, 99.4512253, 0.0192115, -0.0243381, 0.4995, 223.0487823, 0.4995, -24.6341476, 0.4995, 218.7804871, 0.0192115, -0.0149386, 0.4995, 85.6707306, 0.4995, -139.5731812, 0.4995, -66.4024429, 0.0192115, -0.0518654, 0.4995, -157.7439117, 0.4995, -116.0975647, 0.4995, 90.7317123, 0.0192115, -0.0028534, 0.4995, 47.3170738, 0.4995, -127.7439041, 0.4995, 125.36586, 0.0192115, 0.0219883, 0.4995, -267.9878235, 0.4995, 28.9634151, 0.4995, 122.1951218, , , , , , , , , , , , , , , , , , , , , , 
0.0197308, -0.0928206, 0.513, -531.8902588, 0.513, -58.1707344, 0.513, -122.68293, 0.0197308, 0.0328985, 0.513, 446.5853882, 0.513, -154.5731812, 0.513, 91.4634171, 0.0197308, -0.0261845, 0.513, 81.1585388, 0.513, -11.4634151, 0.513, 46.9512215, 0.0197308, -0.0364233, 0.513, 270.8536682, 0.513, -10.3048782, 0.513, 401.9512329, 0.0197308, -0.0135958, 0.513, 188.2317047, 0.513, -82.9268341, 0.513, 4.2073174, 0.0197308, -0.0632792, 0.513, -100.3658524, 0.513, -7.9878049, 0.513, 25.7926826, 0.0197308, 0.0001678, 0.513, -156.5853729, 0.513, 226.4024506, 0.513, 125.0609818, 0.0197308, 0.0240024, 0.513, -451.0975647, 0.513, 42.9878044, 0.513, 80.8536606, , , , , , , , , , , , , , , , , , , , , , 
0.02025, -0.0874495, 0.5265, -508.0487976, 0.5265, -62.3170738, 0.5265, -82.0731735, 0.02025, 0.0307164, 0.5265, 472.8049011, 0.5265, -92.5, 0.5265, 94.146347, 0.02025, -0.0253452, 0.5265, 27.6829281, 0.5265, -62.3780518, 0.5265, 25.5487804, 0.02025, -0.0475013, 0.5265, 327.0731812, 0.5265, 28.3536587, 0.5265, 604.7561035, 0.02025, -0.0125887, 0.5265, 124.5121994, 0.5265, -266.1585388, 0.5265, 30.4878063, 0.02025, -0.0740215, 0.5265, -48.841465, 0.5265, -116.4634171, 0.5265, 17.0731716, 0.02025, 0.0031891, 0.5265, -283.3536682, 0.5265, -156.0975647, 0.5265, -26.2195129, 0.02025, 0.0219883, 0.5265, -680.8536987, 0.5265, 40.7317085, 0.5265, 31.341465, , , , , , , , , , , , , , , , , , , , , , 
0.0207692, -0.0807355, 0.54, -488.4146423, 0.54, 123.6585388, 0.54, -106.5243912, 0.0207692, 0.023331, 0.54, 490.7926941, 0.54, -24.9390259, 0.54, 131.8902435, 0.0207692, -0.0229953, 0.54, -3.5365853, 0.54, -73.3536606, 0.54, 12.6829271, 0.0207692, -0.0357519, 0.54, 388.2926941, 0.54, 59.6951218, 0.54, 816.6463623, 0.0207692, -0.0119173, 0.54, 46.5243912, 0.54, -194.8780518, 0.54, -24.6951218, 0.0207692, -0.0882887, 0.54, -24.1463413, 0.54, -88.2926865, 0.54, -16.8292694, 0.0207692, 0.0058747, 0.54, -52.9878044, 0.54, -198.9634247, 0.54, 4.0853658, 0.0207692, 0.0199741, 0.54, -924.1463623, 0.54, -2.195122, 0.54, -24.8780499, , , , , , , , , , , , , , , , , , , , , , 
0.0212885, -0.072343, 0.5535, -438.0487976, 0.5535, 172.0731812, 0.5535, -165.2439117, 0.0212885, 0.0142672, 0.5535, 462.9878235, 0.5535, 48.9024391, 0.5535, 170.2439117, 0.0212885, -0.0236667, 0.5535, -28.5975609, 0.5535, -72.68293, 0.5535, 6.2195125, 0.0212885, -0.0018463, 0.5535, 424.6951294, 0.5535, 40.5487823, 0.5535, 982.4390259, 0.0212885, -0.0115816, 0.5535, 54.5731735, 0.5535, -105.6097565, 0.5535, 7.1951222, 0.0212885, -0.1052415, 0.5535, 16.0365849, 0.5535, -87.3170776, 0.5535, -45.9146347, 0.0212885, 0.0082246, 0.5535, -59.0853691, 0.5535, -150.7317047, 0.5535, 24.6951218, 0.0212885, 0.0169528, 0.5535, -1092.6219482, 0.5535, -184.7561035, 0.5535, -65.3658524, , , , , , , , , , , , , , , , , , , , , , 
0.0218077, -0.0632792, 0.567, -375.9146423, 0.567, 153.0487823, 0.567, -216.1585388, 0.0218077, 0.0099031, 0.567, 447.3170776, 0.567, 82.8658524, 0.567, 187.3170776, 0.0218077, -0.0240024, 0.567, -59.0853691, 0.567, -70.3658524, 0.567, 1.9512196, 0.0218077, 0.0216526, 0.567, 476.2804871, 0.567, -45.9146347, 0.567, 1094.3902588, 0.0218077, -0.012253, 0.567, 55, 0.567, -100.7926865, 0.567, 37.5609779, 0.0218077, -0.1196765, 0.567, 33.1097565, 0.567, -68.9024429, 0.567, -56.4024391, 0.0218077, 0.0085603, 0.567, -105.4268341, 0.567, -72.5, 0.567, 18.7195129, 0.0218077, 0.0137636, 0.567, -1199.7561035, 0.567, -248.9024506, 0.567, -71.0365906, , , , , , , , , , , , , , , , , , , , , , 
0.0223269, -0.0542153, 0.5805, -276.3414612, 0.5805, 162.5609741, 0.5805, -248.9634247, 0.0223269, 0.0105745, 0.5805, 413.7804871, 0.5805, 193.1707306, 0.5805, 231.2195129, 0.0223269, -0.0223239, 0.5805, -52.1341476, 0.5805, -77.3170776, 0.5805, 1.5853659, 0.0223269, 0.0077211, 0.5805, 507.5609741, 0.5805, -24.3902435, 0.5805, 1128.1097412, 0.0223269, -0.0129244, 0.5805, 74.2682953, 0.5805, -105.9756088, 0.5805, 39.0853653, 0.0223269, -0.1190051, 0.5805, 25.6707325, 0.5805, -71.4024429, 0.5805, -47.0731735, 0.0223269, 0.0082246, 0.5805, 0, 0.5805, 0, 0.5805, 0, 0.0223269, 0.0102388, 0.5805, -1182.6219482, 0.5805, -1.3414634, 0.5805, -47.9878044, , , , , , , , , , , , , , , , , , , , , , 
0.0228462, -0.047837, 0.594, -218.1097565, 0.594, 125.4878082, 0.594, -263.2926941, 0.0228462, 0.0125887, 0.594, 365.2438965, 0.594, 378.3536682, 0.594, 268.7195129, 0.0228462, -0.0238346, 0.594, -47.0731735, 0.594, -121.4634171, 0.594, -15.6097565, 0.0228462, -0.0317235, 0.594, 483.7195129, 0.594, 213.5365906, 0.594, 1076.0975342, 0.0228462, -0.0142672, 0.594, 102.9878082, 0.594, -32.3170738, 0.594, -22.5, 0.0228462, -0.1052415, 0.594, 35.3658562, 0.594, -94.3292694, 0.594, -30.9146347, 0.0228462, 0.008896, 0.594, -92.2561035, 0.594, -25, 0.594, 59.6951218, 0.0228462, 0.0078889, 0.594, -1243.1707764, 0.594, -110.8536606, 0.594, -43.2926826, , , , , , , , , , , , , , , , , , , , , , 
0.0233654, -0.0451514, 0.6075, -159.7561035, 0.6075, 65.4268341, 0.6075, -301.7683105, 0.0233654, 0.0125887, 0.6075, 221.8902435, 0.6075, 358.9634094, 0.6075, 305.9756165, 0.0233654, -0.0270237, 0.6075, -48.9024391, 0.6075, -161.9512177, 0.6075, -16.6463413, 0.0233654, -0.0621042, 0.6075, 273.4756165, 0.6075, 1175.4268799, 0.6075, 889.2073364, 0.0233654, -0.0157778, 0.6075, 78.5975647, 0.6075, 27.8048782, 0.6075, -36.4024391, 0.0233654, -0.0955062, 0.6075, 41.0365868, 0.6075, -94.9390259, 0.6075, -31.0975609, 0.0233654, 0.0095674, 0.6075, -72.9878082, 0.6075, 51.341465, 0.6075, 68.8414688, 0.0233654, 0.0031891, 0.6075, -1348.3536377, 0.6075, 643.475647, 0.6075, -9.1463413, , , , , , , , , , , , , , , , , , , , , , 
0.0238846, -0.0421302, 0.621, -306.8902588, 0.621, 74.5121994, 0.621, -338.4756165, 0.0238846, 0.0112459, 0.621, 37.6829262, 0.621, 32.9878044, 0.621, 234.2073212, 0.0238846, -0.027863, 0.621, -42.5609779, 0.621, -156.5853729, 0.621, -2.2560976, 0.0238846, -0.0592508, 0.621, -109.2682953, 0.621, 1366.4024658, 0.621, 796.4634399, 0.0238846, -0.0179599, 0.621, 89.146347, 0.621, 58.9024391, 0.621, -18.1707325, 0.0238846, -0.0850996, 0.621, 26.5243912, 0.621, -94.6341476, 0.621, -31.2195129, 0.0238846, 0.0075532, 0.621, -32.1951218, 0.621, 115, 0.621, 34.0243912, 0.0238846, -0.0043641, 0.621, -807.2561035, 0.621, 877.1341553, 0.621, -153.1097565, , , , , , , , , , , , , , , , , , , , , , 
0.0244038, -0.0364233, 0.6345, -325.9756165, 0.6345, 475.3658752, 0.6345, -316.6463623, 0.0244038, 0.0132601, 0.6345, 272.9878235, 0.6345, -497.3780518, 0.6345, 239.8170776, 0.0244038, -0.0271916, 0.6345, -36.4634171, 0.6345, -133.3536682, 0.6345, 6.4024391, 0.0244038, -0.0223239, 0.6345, -523.5366211, 0.6345, 1103.1097412, 0.6345, 809.1463623, 0.0244038, -0.0193027, 0.6345, 76.8902435, 0.6345, 92.1341476, 0.6345, -7.5609756, 0.0244038, -0.0582437, 0.6345, 24.0853672, 0.6345, -73.8414688, 0.6345, -26.4024391, 0.0244038, 0.0031891, 0.6345, -31.2195129, 0.6345, 114.0853653, 0.6345, 16.8292694, 0.0244038, -0.0129244, 0.6345, -674.6341553, 0.6345, 1301.8902588, 0.6345, -554.2073364, , , , , , , , , , , , , , , , , , , , , , 
0.0249231, -0.0293736, 0.648, -343.6585388, 0.648, 816.9512329, 0.648, -296.7073364, 0.0249231, 0.0186313, 0.648, 428.3536682, 0.648, 10.4878054, 0.648, 362.6829224, 0.0249231, -0.0287022, 0.648, -37.1951218, 0.648, -123.0487823, 0.648, -1.2804878, 0.0249231, 0.0193027, 0.648, -388.7195129, 0.648, 36.8292694, 0.648, 517.2561035, 0.0249231, -0.0206455, 0.648, 80.4268341, 0.648, 78.0487823, 0.648, -17.6829281, 0.0249231, -0.0276951, 0.648, 23.3536587, 0.648, -80.3048782, 0.648, -25.1219521, 0.0249231, 0.0005035, 0.648, -49.9390259, 0.648, 81.5243912, 0.648, 36.6463432, 0.0249231, -0.0198062, 0.648, -212.6219635, 0.648, 36.341465, 0.648, -589.4512329, , , , , , , , , , , , , , , , , , , , , , 
0.0254423, -0.0229953, 0.6615, -468.9024353, 0.6615, 38.5975609, 0.6615, -320.8536682, 0.0254423, 0.0226596, 0.6615, 550.3048706, 0.6615, -107.5609818, 0.6615, 354.8170776, 0.0254423, -0.0290379, 0.6615, -36.2195129, 0.6615, -93.0487823, 0.6615, -27.3170738, 0.0254423, 0.0381018, 0.6615, -417.2561035, 0.6615, -664.6951294, 0.6615, 264.0243835, 0.0254423, -0.018967, 0.6615, 86.8902435, 0.6615, -7.1951222, 0.6615, -35.3048782, 0.0254423, -0.0129244, 0.6615, 35.1829262, 0.6615, -54.3292694, 0.6615, -11.5243902, 0.0254423, 0.0005035, 0.6615, -44.1463432, 0.6615, 34.4512215, 0.6615, 52.3170738, 0.0254423, -0.0223239, 0.6615, 0.6707317, 0.6615, -1103.1097412, 0.6615, -614.0244141, , , , , , , , , , , , , , , , , , , , , , 
0.0259615, -0.0203098, 0.675, -364.6341553, 0.675, 325.2438965, 0.675, -522.4390259, 0.0259615, 0.0263523, 0.675, 511.0365906, 0.675, 0.4878049, 0.675, 404.6341553, 0.0259615, -0.0270237, 0.675, -40, 0.675, -21.7682934, 0.675, -53.6585388, 0.0259615, 0.0374304, 0.675, -191.4634247, 0.675, -354.5731812, 0.675, 269.3902588, 0.0259615, -0.0182956, 0.675, 57.0731735, 0.675, -54.5731735, 0.675, -16.8292694, 0.0259615, -0.0193027, 0.675, 59.2682953, 0.675, 14.2073174, 0.675, 7.3170733, 0.0259615, 0.0008392, 0.675, -35.3658562, 0.675, -18.780489, 0.675, 36.4024391, 0.0259615, -0.0243381, 0.675, -222.1341553, 0.675, -283.23172, 0.675, -379.5731812, , , , , , , , , , , , , , , , , , , , , , 
0.0264808, -0.0186313, 0.6885, -158.1097565, 0.6885, 33.4146347, 0.6885, -647.5, 0.0264808, 0.0327306, 0.6885, 389.512207, 0.6885, 259.3902588, 0.6885, 400.1219482, 0.0264808, -0.0276951, 0.6885, -34.9390259, 0.6885, 51.9512215, 0.6885, -52.3170738, 0.0264808, 0.0307164, 0.6885, -278.4146423, 0.6885, 5.5487804, 0.6885, 231.0365906, 0.0264808, -0.0216526, 0.6885, 23.2926826, 0.6885, -6.9512196, 0.6885, 43.7804871, 0.0264808, -0.0310521, 0.6885, 68.0487823, 0.6885, 88.1707306, 0.6885, 16.0975609, 0.0264808, 0.0008392, 0.6885, -50, 0.6885, -12.9268293, 0.6885, -25.7317085, 0.0264808, -0.027863, 0.6885, -123.9024429, 0.6885, 86.9512253, 0.6885, -398.7804871, , , , , , , , , , , , , , , , , , , , , , 
0.027, -0.0149386, 0.702, 5.4268293, 0.702, 50.6097565, 0.702, -528.5975952, 0.027, 0.0438087, 0.702, 228.4756165, 0.702, 324.512207, 0.702, 413.1707458, 0.027, -0.0297093, 0.702, -28.6585369, 0.702, 70.8536606, 0.702, -30.8536587, 0.027, 0.0196384, 0.702, -399.2683105, 0.702, -44.0243912, 0.702, 127.3170776, 0.027, -0.0229953, 0.702, 29.7560978, 0.702, -14.9390249, 0.702, 91.4634171, 0.027, -0.0270237, 0.702, 52.0121956, 0.702, 117.0121994, 0.702, 8.5975609, 0.027, 0.0008392, 0.702, -59.5121956, 0.702, -60.1219521, 0.702, -69.0243912, 0.027, -0.0283665, 0.702, 36.1585388, 0.702, 13.4146347, 0.702, -408.5365906, , , , , , , , , , , , , , , , , , , , , , 
0.0275192, -0.0109102, 0.7155, -91.8902435, 0.7155, -141.2195129, 0.7155, -375.0609741, 0.0275192, 0.0565652, 0.7155, 55.3048782, 0.7155, -36.8292694, 0.7155, 284.4512329, 0.0275192, -0.0307164, 0.7155, -47.5609779, 0.7155, 24.3902435, 0.7155, -5.7926831, 0.0275192, 0.0102388, 0.7155, -276.8902588, 0.7155, -175.9756165, 0.7155, 165, 0.0275192, -0.0236667, 0.7155, 76.4024429, 0.7155, -55, 0.7155, 88.7195129, 0.0275192, -0.0142672, 0.7155, 40.6707344, 0.7155, 100.9146347, 0.7155, -16.5853653, 0.0275192, 0.0008392, 0.7155, -67.0121994, 0.7155, -125.8536606, 0.7155, -60.0609779, 0.0275192, -0.0265202, 0.7155, -59.7560997, 0.7155, 9.3292685, 0.7155, -356.4634094, , , , , , , , , , , , , , , , , , , , , , 
0.0280385, -0.0068818, 0.729, -207.0731812, 0.729, -473.1097717, 0.729, -280.3048706, 0.0280385, 0.0663005, 0.729, 109.0243912, 0.729, -409.1463623, 0.729, 189.9390259, 0.0280385, -0.030045, 0.729, -56.8902435, 0.729, -77.1951218, 0.729, 3.8414636, 0.0280385, 0.0015106, 0.729, -161.7073212, 0.729, -304.0853882, 0.729, 188.5975647, 0.0280385, -0.0256809, 0.729, 88.3536606, 0.729, -96.4634171, 0.729, 75.2439041, 0.0280385, -0.0166171, 0.729, 36.2195129, 0.729, -21.6463413, 0.729, -35.4268303, 0.0280385, 0.0008392, 0.729, -80.8536606, 0.729, -170.1219482, 0.729, -41.0975609, 0.0280385, -0.0219883, 0.729, -99.4512253, 0.729, -350.1219482, 0.729, -334.5731812, , , , , , , , , , , , , , , , , , , , , , 
0.0285577, -0.0035248, 0.7425, -215.9146423, 0.7425, -594.8170776, 0.7425, -253.1097565, 0.0285577, 0.0757, 0.7425, 108.5975647, 0.7425, -638.8414917, 0.7425, 209.6951294, 0.0285577, -0.0298772, 0.7425, -22.2560978, 0.7425, -202.1951294, 0.7425, -4.3292685, 0.0285577, -0.0157778, 0.7425, -129.5121918, 0.7425, -402.3780518, 0.7425, 178.8414612, 0.0285577, -0.0287022, 0.7425, 102.5, 0.7425, -237.5, 0.7425, 37.8048782, 0.0285577, -0.0297093, 0.7425, 16.5853653, 0.7425, -155.8536682, 0.7425, -21.5243912, 0.0285577, 0.0001678, 0.7425, -100, 0.7425, -244.8780518, 0.7425, 3.9634147, 0.0285577, -0.0119173, 0.7425, -65.7926865, 0.7425, -402.6829224, 0.7425, -279.2683105, , , , , , , , , , , , , , , , , , , , , , 
0.0290769, -0.0008392, 0.756, -147.9268341, 0.756, -712.5, 0.756, -228.5365906, 0.0290769, 0.0908064, 0.756, 96.5853653, 0.756, -954.7561035, 0.756, 262.9878235, 0.0290769, -0.0323949, 0.756, -8.9024391, 0.756, -234.6341553, 0.756, -7.8658538, 0.0290769, -0.0253452, 0.756, -82.68293, 0.756, -437.012207, 0.756, 171.5243988, 0.0290769, -0.0290379, 0.756, 79.5121994, 0.756, -296.6463623, 0.756, -18.4146347, 0.0290769, -0.0317235, 0.756, 2.9268293, 0.756, -228.4756165, 0.756, -7.5, 0.0290769, -0.0008392, 0.756, -104.3292694, 0.756, -272.7438965, 0.756, 49.5121956, 0.0290769, -0.0001678, 0.756, -70.3658524, 0.756, -338.0487976, 0.756, -244.2073212, , , , , , , , , , , , , , , , , , , , , , 
0.0295962, 0.0011749, 0.7695, -79.0243912, 0.7695, -570.975647, 0.7695, -188.3536682, 0.0295962, 0.111284, 0.7695, 224.5731812, 0.7695, -787.0731812, 0.7695, 194.6341553, 0.0295962, -0.0345769, 0.7695, 9.1463413, 0.7695, -240.5487823, 0.7695, -7.9878049, 0.0295962, -0.0246738, 0.7695, -17.7439022, 0.7695, -355, 0.7695, 172.3170776, 0.0295962, -0.0298772, 0.7695, 32.0121956, 0.7695, -241.5853729, 0.7695, -56.5853653, 0.0295962, -0.0196384, 0.7695, -3.7195122, 0.7695, -209.6341553, 0.7695, 2.0731707, 0.0295962, -0.0023499, 0.7695, -69.9390259, 0.7695, -282.6219482, 0.7695, 64.5121994, 0.0295962, 0.0078889, 0.7695, -110.6707306, 0.7695, -406.2195129, 0.7695, -198.7804871, , , , , , , , , , , , , , , , , , , , , , 
0.0301154, 0.0015106, 0.783, -46.4024391, 0.783, -235.5487823, 0.783, -148.6585388, 0.0301154, 0.1300832, 0.783, 135.8536682, 0.783, -207.1951294, 0.783, 152.9878082, 0.0301154, -0.0323949, 0.783, 14.0853662, 0.783, -209.6951294, 0.783, -3.5975611, 0.0301154, -0.0226596, 0.783, -21.7073174, 0.783, -275.0609741, 0.783, 132.0121918, 0.0301154, -0.0307164, 0.783, 23.1707325, 0.783, -168.3536682, 0.783, -63.7804909, 0.0301154, 0.005539, 0.783, -9.7560978, 0.783, -155.8536682, 0.783, 6.280488, 0.0301154, -0.0045319, 0.783, -26.2195129, 0.783, -248.5975647, 0.783, 59.9390259, 0.0301154, 0.0095674, 0.783, -107.3780518, 0.783, -320.1219482, 0.783, -156.8902435, , , , , , , , , , , , , , , , , , , , , , 
0.0306346, 0.0045319, 0.7965, -24.3902435, 0.7965, -159.2073212, 0.7965, -163.6585388, 0.0306346, 0.140322, 0.7965, -5.9146342, 0.7965, -7.3170733, 0.7965, 185.9756165, 0.0306346, -0.0293736, 0.7965, 14.0853662, 0.7965, -149.5731812, 0.7965, 7.0121951, 0.0306346, -0.0199741, 0.7965, -38.9024391, 0.7965, -253.5365906, 0.7965, 103.9024429, 0.0306346, -0.0323949, 0.7965, 17.560976, 0.7965, -150.4268341, 0.7965, -50.6707344, 0.0306346, 0.0287022, 0.7965, -14.2073174, 0.7965, -134.7561035, 0.7965, 6.2195125, 0.0306346, -0.0048676, 0.7965, -8.4756098, 0.7965, -209.5731812, 0.7965, 52.1951218, 0.0306346, 0.0075532, 0.7965, -47.6829262, 0.7965, -178.7195129, 0.7965, -138.9634247, , , , , , , , , , , , , , , , , , , , , , 
0.0311538, 0.0065461, 0.81, -32.6829262, 0.81, -131.5243988, 0.81, -191.5243988, 0.0311538, 0.1455253, 0.81, -46.5853653, 0.81, 9.8170738, 0.81, 196.7682953, 0.0311538, -0.0307164, 0.81, 26.280489, 0.81, -131.2195129, 0.81, 17.5, 0.0311538, -0.0166171, 0.81, -79.7560959, 0.81, -222.9878082, 0.81, 49.4512215, 0.0311538, -0.0337377, 0.81, 12.6219511, 0.81, -208.4146423, 0.81, -34.7560997, 0.0311538, 0.0374304, 0.81, -24.9390259, 0.81, -102.5609818, 0.81, 5.609756, 0.0311538, -0.0045319, 0.81, -8.9634151, 0.81, -197.9268341, 0.81, 57.3170738, 0.0311538, 0.0038605, 0.81, 23.0487804, 0.81, -177.3170776, 0.81, -154.6951294, , , , , , , , , , , , , , , , , , , , , , 
0.0316731, 0.0092317, 0.8235, -46.0365868, 0.8235, -20.060976, 0.8235, -202.4390259, 0.0316731, 0.1482109, 0.8235, -11.5243902, 0.8235, -7.6219516, 0.8235, 175.8536682, 0.0316731, -0.0345769, 0.8235, 29.0853672, 0.8235, -141.3414612, 0.8235, 25.8536587, 0.0316731, -0.0149386, 0.8235, -115.5487823, 0.8235, -211.4634247, 0.8235, -3.4146342, 0.0316731, -0.0347448, 0.8235, 6.2195125, 0.8235, -272.3170776, 0.8235, -31.6463413, 0.0316731, 0.0387732, 0.8235, -30.1219521, 0.8235, -90.3048782, 0.8235, 1.2195122, 0.0316731, -0.0062104, 0.8235, -19.2682934, 0.8235, -215.1219635, 0.8235, 68.7804871, 0.0316731, -0.0015106, 0.8235, 76.9512177, 0.8235, -171.3414612, 0.8235, -160, , , , , , , , , , , , , , , , , , , , , , 
0.0321923, 0.0115816, 0.837, -36.2195129, 0.837, 21.8292694, 0.837, -186.5243988, 0.0321923, 0.1482109, 0.837, 44.2682953, 0.837, -23.6585369, 0.837, 161.4634247, 0.0321923, -0.0350805, 0.837, 19.4512196, 0.837, -151.0365906, 0.837, 28.780489, 0.0321923, -0.01561, 0.837, -142.1951294, 0.837, -183.2317047, 0.837, -42.9878044, 0.0321923, -0.0364233, 0.837, 9.8170738, 0.837, -293.0487976, 0.837, -37.0121956, 0.0321923, 0.0397803, 0.837, 0, 0.837, 0, 0.837, 0, 0.0321923, -0.0095674, 0.837, -26.7682934, 0.837, -216.0975647, 0.837, 84.6951218, 0.0321923, -0.008896, 0.837, 118.0487823, 0.837, -123.4146347, 0.837, -165.3048859, , , , , , , , , , , , , , , , , , , , , , 
0.0327115, 0.0119173, 0.8505, -22.0121956, 0.8505, 20.9146347, 0.8505, -161.9512177, 0.0327115, 0.144686, 0.8505, 58.9634171, 0.8505, -5.4268293, 0.8505, 153.9634247, 0.0327115, -0.0330663, 0.8505, 17.8658543, 0.8505, -168.9024506, 0.8505, 30.5487804, 0.0327115, -0.021149, 0.8505, -168.5975647, 0.8505, -138.1707306, 0.8505, -70.9146347, 0.0327115, -0.0364233, 0.8505, 21.4634151, 0.8505, -272.5, 0.8505, -42.9878044, 0.0327115, 0.0287022, 0.8505, -29.5731716, 0.8505, -150.7926788, 0.8505, -6.6463418, 0.0327115, -0.0125887, 0.8505, -31.7073174, 0.8505, -212.5609741, 0.8505, 92.9878082, 0.0327115, -0.0157778, 0.8505, 146.5243988, 0.8505, -74.1463394, 0.8505, -170.6707306, , , , , , , , , , , , , , , , , , , , , , 
0.0332308, 0.0115816, 0.864, -5.4878049, 0.864, 64.8780518, 0.864, -143.0487823, 0.0332308, 0.1364614, 0.864, 33.9024391, 0.864, 6.5243902, 0.864, 138.4756165, 0.0332308, -0.0303807, 0.864, 32.1341476, 0.864, -179.5731812, 0.864, 29.5731716, 0.0332308, -0.027863, 0.864, -183.2317047, 0.864, -79.146347, 0.864, -85.7926865, 0.0332308, -0.0337377, 0.864, 23.1707325, 0.864, -220.9756165, 0.864, -46.0365868, 0.0332308, 0.0018463, 0.864, -39.6951218, 0.864, -174.4512177, 0.864, -2.0731707, 0.0332308, -0.0119173, 0.864, -32.3780479, 0.864, -206.1585388, 0.864, 87.6219559, 0.0332308, -0.0236667, 0.864, 149.9390259, 0.864, -5.670732, 0.864, -166.8902435, , , , , , , , , , , , , , , , , , , , , , 
0.03375, 0.0092317, 0.8775, 30.9146347, 0.8775, 121.2804871, 0.8775, -131.7073212, 0.03375, 0.1250477, 0.8775, -12.8048782, 0.8775, 63.841465, 0.8775, 121.0365906, 0.03375, -0.0273594, 0.8775, 42.8658562, 0.8775, -174.6341553, 0.8775, 30.6097565, 0.03375, -0.0243381, 0.8775, -192.5, 0.8775, -5.1219511, 0.8775, -94.5731735, 0.03375, -0.0303807, 0.8775, 17.9878044, 0.8775, -193.0487823, 0.8775, -47.0731735, 0.03375, -0.023331, 0.8775, -51.0975609, 0.8775, -176.2804871, 0.8775, 4.3292685, 0.03375, -0.0117494, 0.8775, -36.9512215, 0.8775, -187.9268341, 0.8775, 74.0853653, 0.03375, -0.0323949, 0.8775, 148.5365906, 0.8775, 77.3170776, 0.8775, -160.1829376, , , , , , , , , , , , , , , , , , , , , , 
0.0342692, 0.0065461, 0.891, 88.1707306, 0.891, 160.1829376, 0.891, -117.0731735, 0.0342692, 0.1132982, 0.891, -72.2560959, 0.891, 127.0121994, 0.891, 107.8658524, 0.0342692, -0.0256809, 0.891, 40.9756088, 0.891, -165.9146423, 0.891, 33.2317085, 0.0342692, -0.012253, 0.891, -204.2073212, 0.891, 65.7317123, 0.891, -108.2317123, 0.0342692, -0.0283665, 0.891, 1.8292683, 0.891, -146.646347, 0.891, -47.3780518, 0.0342692, -0.0360876, 0.891, -55.4878044, 0.891, -172.6219482, 0.891, 5.609756, 0.0342692, -0.0119173, 0.891, -37.9268303, 0.891, -160.2439117, 0.891, 59.6341476, 0.0342692, -0.0411231, 0.891, 158.2317047, 0.891, 149.6951294, 0.891, -151.8902435, , , , , , , , , , , , , , , , , , , , , , 
0.0347885, 0.0048676, 0.9045, 119.5731735, 0.9045, 175.0609741, 0.9045, -106.4024429, 0.0347885, 0.0985275, 0.9045, -104.3292694, 0.9045, 151.8292694, 0.9045, 102.3170776, 0.0347885, -0.0265202, 0.9045, 37.2560997, 0.9045, -161.2195129, 0.9045, 32.9268303, 0.0347885, -0.0011749, 0.9045, -215, 0.9045, 113.5975647, 0.9045, -126.8292694, 0.0347885, -0.0270237, 0.9045, -7.9268293, 0.9045, -119.3902435, 0.9045, -42.0121956, 0.0347885, -0.0397803, 0.9045, -54.3902435, 0.9045, -158.1707306, 0.9045, 5.0609756, 0.0347885, -0.012253, 0.9045, -34.5731697, 0.9045, -132.1341553, 0.9045, 49.6341476, 0.0347885, -0.0525368, 0.9045, 166.3414612, 0.9045, 179.146347, 0.9045, -146.9512177, , , , , , , , , , , , , , , , , , , , , , 
0.0353077, 0.0025177, 0.918, 177.3780518, 0.918, 199.3292694, 0.918, -80.6707306, 0.0353077, 0.0797284, 0.918, -160, 0.918, 187.3780518, 0.918, 92.3780518, 0.0353077, -0.0263523, 0.918, 35.6707344, 0.918, -147.0121918, 0.918, 28.4756107, 0.0353077, 0.005539, 0.918, -221.8902435, 0.918, 134.3902435, 0.918, -145.5487823, 0.0353077, -0.0256809, 0.918, -3.4756098, 0.918, -113.0487823, 0.918, -35, 0.0353077, -0.0313878, 0.918, -52.1951218, 0.918, -128.9634247, 0.918, 8.5975609, 0.0353077, -0.0142672, 0.918, -30.7926846, 0.918, -108.1097565, 0.918, 47.3170738, 0.0353077, -0.0632792, 0.918, 186.8292694, 0.918, 214.3292694, 0.918, -136.0365906, , , , , , , , , , , , , , , , , , , , , , 
0.0358269, -0.0010071, 0.9315, 223.5975647, 0.9315, 220.4878082, 0.9315, -52.5, 0.0358269, 0.0609293, 0.9315, -195.8536682, 0.9315, 200, 0.9315, 78.6585388, 0.0358269, -0.026688, 0.9315, 36.0365868, 0.9315, -121.0365906, 0.9315, 23.5365868, 0.0358269, 0.0105745, 0.9315, -221.7682953, 0.9315, 132.5, 0.9315, -162.3170776, 0.0358269, -0.0243381, 0.9315, 11.341464, 0.9315, -107.0121994, 0.9315, -32.1341476, 0.0358269, -0.0258488, 0.9315, -47.8658562, 0.9315, -89.7560959, 0.9315, 14.8780489, 0.0358269, -0.0152743, 0.9315, -33.9024391, 0.9315, -87.6219559, 0.9315, 50.9146347, 0.0358269, -0.0686503, 0.9315, 208.1097565, 0.9315, 221.7073212, 0.9315, -125.3048782, , , , , , , , , , , , , , , , , , , , , , 
0.0363462, -0.0046998, 0.945, 249.2682953, 0.945, 234.8170776, 0.945, -23.1097565, 0.0363462, 0.0448157, 0.945, -218.6585388, 0.945, 192.5, 0.945, 61.0365868, 0.0363462, -0.0285344, 0.945, 38.1097565, 0.945, -101.8902435, 0.945, 23.2926826, 0.0363462, 0.0164492, 0.945, -211.7073212, 0.945, 114.2073212, 0.945, -176.646347, 0.0363462, -0.0223239, 0.945, 25.6707325, 0.945, -105.6097565, 0.945, -35.9146347, 0.0363462, -0.0330663, 0.945, -45.3658562, 0.945, -62.7439041, 0.945, 16.2195129, 0.0363462, -0.01561, 0.945, -36.4024391, 0.945, -79.8780518, 0.945, 53.9024391, 0.0363462, -0.0696574, 0.945, 225.1829376, 0.945, 207.86586, 0.945, -111.9512253, , , , , , , , , , , , , , , , , , , , , , 
0.0368654, -0.0068818, 0.9585, 253.6585388, 0.9585, 231.0975647, 0.9585, 7.0731707, 0.0368654, 0.0344091, 0.9585, -245.3048859, 0.9585, 170.3048859, 0.9585, 44.2682953, 0.0368654, -0.0313878, 0.9585, 36.2195129, 0.9585, -59.6341476, 0.9585, 27.0731716, 0.0368654, 0.0216526, 0.9585, -189.0853729, 0.9585, 81.2195129, 0.9585, -190.4268341, 0.0368654, -0.0191348, 0.9585, 31.8292694, 0.9585, -102.9268341, 0.9585, -41.5853653, 0.0368654, -0.0325628, 0.9585, -46.4634171, 0.9585, -56.341465, 0.9585, 14.9390249, 0.0368654, -0.0167849, 0.9585, -42.8048782, 0.9585, -72.1341476, 0.9585, 58.2926826, 0.0368654, -0.0679789, 0.9585, 236.4024506, 0.9585, 175, 0.9585, -92.3170776, , , , , , , , , , , , , , , , , , , , , , 
0.0373846, -0.0038605, 0.972, 241.2804871, 0.972, 199.2682953, 0.972, 29.8170738, 0.0373846, 0.0280308, 0.972, -289.8780518, 0.972, 125.9756165, 0.972, 38.3536606, 0.0373846, -0.0345769, 0.972, 31.280489, 0.972, -36.9512215, 0.972, 32.9878044, 0.0373846, 0.0213169, 0.972, -154.5121918, 0.972, 53.0487823, 0.972, -202.5609741, 0.0373846, -0.0162814, 0.972, 30.8536587, 0.972, -90, 0.972, -44.8780479, 0.0373846, -0.0142672, 0.972, -46.9512215, 0.972, -52.9878044, 0.972, 9.4512196, 0.0373846, -0.0169528, 0.972, -47.4390259, 0.972, -63.5365868, 0.972, 57.3170738, 0.0373846, -0.0626078, 0.972, 239.6951294, 0.972, 131.9512177, 0.972, -64.0243912, , , , , , , , , , , , , , , , , , , , , , 
0.0379038, -0.0018463, 0.9855, 222.86586, 0.9855, 147.0121918, 0.9855, 39.3902435, 0.0379038, 0.0199741, 0.9855, -326.0975647, 0.9855, 61.0975609, 0.9855, 40.7926826, 0.0379038, -0.0364233, 0.9855, 23.4756107, 0.9855, -44.9390259, 0.9855, 37.3780479, 0.0379038, 0.0206455, 0.9855, -136.0975647, 0.9855, 36.4024391, 0.9855, -206.0975647, 0.0379038, -0.0132601, 0.9855, 27.1341476, 0.9855, -63.4756126, 0.9855, -45.3048782, 0.0379038, 0.0099031, 0.9855, -45.9756126, 0.9855, -67.4390259, 0.9855, 1.8902439, 0.0379038, -0.0181277, 0.9855, -49.9390259, 0.9855, -52.4390259, 0.9855, 51.2804909, 0.0379038, -0.0542153, 0.9855, 235.9756165, 0.9855, 83.6585388, 0.9855, -38.4146347, , , , , , , , , , , , , , , , , , , , , , 
0.0384231, -0.0028534, 0.999, 229.146347, 0.999, 68.2926865, 0.999, 35.6707344, 0.0384231, 0.0105745, 0.999, -337.1341553, 0.999, 36.2195129, 0.999, 48.0487823, 0.0384231, -0.0365911, 0.999, 17.6829281, 0.999, -70.7926865, 0.999, 34.4512215, 0.0384231, 0.0206455, 0.999, -111.4024429, 0.999, -6.1585369, 0.999, -209.2682953, 0.0384231, -0.0105745, 0.999, 21.2195129, 0.999, -35.8536606, 0.999, -42.6829262, 0.0384231, 0.040116, 0.999, -43.3536606, 0.999, -93.2926865, 0.999, -1.0365853, 0.0384231, -0.0182956, 0.999, -52.6829262, 0.999, -40.2439041, 0.999, 43.0487823, 0.0384231, -0.0397803, 0.999, 233.4146423, 0.999, 48.2926826, 0.999, -29.4512196, , , , , , , , , , , , , , , , , , , , , , 
0.0389423, -0.0052033, 1.0125, 251.5243988, 1.0125, -18.8414631, 1.0125, 24.2073174, 0.0389423, -0.0023499, 1.0125, -324.2683105, 1.0125, 23.7195129, 1.0125, 55.7926826, 0.0389423, -0.0364233, 1.0125, 23.2926826, 1.0125, -114.8780518, 1.0125, 28.2926826, 0.0389423, 0.0102388, 1.0125, -106.2195129, 1.0125, -36.7073174, 1.0125, -217.6829376, 0.0389423, -0.0085603, 1.0125, 15.4268293, 1.0125, -22.8048782, 1.0125, -37.3780479, 0.0389423, 0.0562295, 1.0125, -42.5609779, 1.0125, -117.2561035, 1.0125, 3.2926829, 0.0389423, -0.0176242, 1.0125, -55.6707344, 1.0125, -24.9390259, 1.0125, 38.7195129, 0.0389423, -0.0203098, 1.0125, 245.8536682, 1.0125, 20.1219521, 1.0125, -29.3902454, , , , , , , , , , , , , , , , , , , , , , 
0.0394615, -0.0062104, 1.026, 284.512207, 1.026, -98.9634171, 1.026, 2.3780489, 0.0394615, -0.0179599, 1.026, -301.7073364, 1.026, 0.6097561, 1.026, 67.7439041, 0.0394615, -0.035584, 1.026, 32.1951218, 1.026, -142.86586, 1.026, 25.6707325, 0.0394615, -0.0109102, 1.026, -108.9024429, 1.026, -59.8170738, 1.026, -231.4024506, 0.0394615, -0.0095674, 1.026, 10, 1.026, -30.7926846, 1.026, -32.0121956, 0.0394615, 0.0240024, 1.026, -42.4390259, 1.026, -123.9024429, 1.026, 9.1463413, 0.0394615, -0.017792, 1.026, -54.3902435, 1.026, -26.280489, 1.026, 37.9878044, 0.0394615, -0.0036927, 1.026, 261.3414612, 1.026, -3.7804878, 1.026, -30, , , , , , , , , , , , , , , , , , , , , , 
0.0399808, -0.0045319, 1.0395, 305.1829224, 1.0395, -154.7561035, 1.0395, -21.7682934, 0.0399808, -0.0394446, 1.0395, -285.4268494, 1.0395, -43.4756126, 1.0395, 80.7926865, 0.0399808, -0.0357519, 1.0395, 34.8170738, 1.0395, -142.2561035, 1.0395, 25.7317085, 0.0399808, -0.0256809, 1.0395, -111.2804871, 1.0395, -50.6097565, 1.0395, -246.2804871, 0.0399808, -0.0109102, 1.0395, 8.5975609, 1.0395, -44.3292694, 1.0395, -30.6707325, 0.0399808, -0.0327306, 1.0395, -39.8780479, 1.0395, -99.7561035, 1.0395, 11.7682934, 0.0399808, -0.0169528, 1.0395, -54.3902435, 1.0395, -41.8292694, 1.0395, 40.5487823, 0.0399808, 0.0065461, 1.0395, 277.2561035, 1.0395, -2.0731707, 1.0395, -26.5853672, , , , , , , , , , , , , , , , , , , , , , 
0.0405, -0.0025177, 1.053, 305.0609741, 1.053, -173.5975647, 1.053, -33.6585388, 0.0405, -0.0661326, 1.053, -272.6829224, 1.053, -90.4268341, 1.053, 91.7073212, 0.0405, -0.0357519, 1.053, 32.1341476, 1.053, -102.8658524, 1.053, 26.280489, 0.0405, -0.026688, 1.053, -116.7073212, 1.053, -29.3902454, 1.053, -259.0853577, 0.0405, -0.0109102, 1.053, 10.3048782, 1.053, -75, 1.053, -31.4634151, 0.0405, -0.0548867, 1.053, -38.1707344, 1.053, -78.1707306, 1.053, 9.0853662, 0.0405, -0.0176242, 1.053, -51.8902435, 1.053, -69.6341476, 1.053, 46.0975609, 0.0405, 0.0132601, 1.053, 287.7438965, 1.053, -0.1219512, 1.053, -24.5121956, , , , , , , , , , , , , , , , , , , , , , 
0.0410192, -0.0015106, 1.0665, 287.9268494, 1.0665, -197.7439117, 1.0665, -55.4878044, 0.0410192, -0.0894636, 1.0665, -260.5487976, 1.0665, -108.7804871, 1.0665, 96.5243912, 0.0410192, -0.036759, 1.0665, 25.5487804, 1.0665, -83.9634171, 1.0665, 29.7560978, 0.0410192, -0.0223239, 1.0665, -120.5487823, 1.0665, -24.3902435, 1.0665, -265.73172, 0.0410192, -0.0102388, 1.0665, 20.7317085, 1.0665, -100.3658524, 1.0665, -37.5, 0.0410192, -0.0370947, 1.0665, -42.0731735, 1.0665, -72.4390259, 1.0665, 5.1829271, 0.0410192, -0.018967, 1.0665, -45.4268303, 1.0665, -86.2195129, 1.0665, 54.3902435, 0.0410192, 0.0199741, 1.0665, 301.4024353, 1.0665, -1.7073171, 1.0665, -21.3414631, , , , , , , , , , , , , , , , , , , , , , 
0.0415385, -0.0008392, 1.08, 264.3292847, 1.08, -222.9268341, 1.08, -74.5731735, 0.0415385, -0.1049058, 1.08, -240.9146423, 1.08, -131.2195129, 1.08, 114.3292694, 0.0415385, -0.0379339, 1.08, 25.6097565, 1.08, -98.9634171, 1.08, 35.0609779, 0.0415385, -0.0176242, 1.08, -116.646347, 1.08, -58.2926826, 1.08, -267.3170776, 0.0415385, -0.0062104, 1.08, 38.5975609, 1.08, -112.1341476, 1.08, -45, 0.0415385, -0.0115816, 1.08, -47.9878044, 1.08, -98.3536606, 1.08, 2.4390244, 0.0415385, -0.0176242, 1.08, -48.0487823, 1.08, -101.4634171, 1.08, 59.9390259, 0.0415385, 0.0253452, 1.08, 298.7804871, 1.08, -6.4024391, 1.08, -22.560976, , , , , , , , , , , , , , , , , , , , , , 
0.0420577, -0.0010071, 1.0935, 253.4146423, 1.0935, -249.8780518, 1.0935, -93.1707306, 0.0420577, -0.1129625, 1.0935, -258.5975647, 1.0935, -141.8292694, 1.0935, 132.6219482, 0.0420577, -0.0377661, 1.0935, 36.341465, 1.0935, -145.1219482, 1.0935, 42.1951218, 0.0420577, -0.0172885, 1.0935, -109.8780518, 1.0935, -105.9756088, 1.0935, -269.8170776, 0.0420577, -0.0028534, 1.0935, 51.6463432, 1.0935, -112.2561035, 1.0935, -44.8170738, 0.0420577, 0.0115816, 1.0935, -59.6341476, 1.0935, -139.8780518, 1.0935, 2.804878, 0.0420577, -0.0166171, 1.0935, 0, 1.0935, 0, 1.0935, 0, 0.0420577, 0.0298772, 1.0935, 293.4756165, 1.0935, -25.3048782, 1.0935, -26.5853672, , , , , , , , , , , , , , , , , , , , , , 
0.0425769, -0.0015106, 1.107, 251.2804871, 1.107, -264.6951294, 1.107, -114.8170776, 0.0425769, -0.1186694, 1.107, -253.4756165, 1.107, -187.1341553, 1.107, 143.9024353, 0.0425769, -0.0350805, 1.107, 50.3658562, 1.107, -181.8902435, 1.107, 50.5487823, 0.0425769, -0.0196384, 1.107, -107.2561035, 1.107, -159.5731812, 1.107, -276.3414612, 0.0425769, 0.0005035, 1.107, 49.6341476, 1.107, -120.6707382, 1.107, -38.2317085, 0.0425769, 0.0370947, 1.107, -66.6463394, 1.107, -155.4878082, 1.107, 3.7195122, 0.0425769, -0.0172885, 1.107, -51.4634171, 1.107, -113.2926865, 1.107, 59.5731735, 0.0425769, 0.0327306, 1.107, 301.4634094, 1.107, -73.7804871, 1.107, -31.4634151, , , , , , , , , , , , , , , , , , , , , , 
0.0430962, -0.0045319, 1.1205, 244.512207, 1.1205, -245.1829376, 1.1205, -138.8414612, 0.0430962, -0.1223621, 1.1205, -232.4390259, 1.1205, -267.1951294, 1.1205, 158.8414612, 0.0430962, -0.0337377, 1.1205, 54.5731735, 1.1205, -188.5365906, 1.1205, 58.4146347, 0.0430962, -0.0203098, 1.1205, -107.1951218, 1.1205, -207.3780518, 1.1205, -280.3048706, 0.0430962, 0.0030213, 1.1205, 31.6463413, 1.1205, -126.4024429, 1.1205, -33.1097565, 0.0430962, 0.0619364, 1.1205, -78.4756088, 1.1205, -179.8780518, 1.1205, 4.8170733, 0.0430962, -0.0182956, 1.1205, -50.6097565, 1.1205, -121.8902435, 1.1205, 57.6219521, 0.0430962, 0.0340734, 1.1205, 319.0853882, 1.1205, -140.2439117, 1.1205, -37.3780479, , , , , , , , , , , , , , , , , , , , , , 
0.0436154, -0.005539, 1.134, 233.23172, 1.134, -194.146347, 1.134, -163.9634247, 0.0436154, -0.1183337, 1.134, -244.3292694, 1.134, -223.1097565, 1.134, 175.7317047, 0.0436154, -0.03122, 1.134, 54.2073174, 1.134, -193.5975647, 1.134, 62.0731735, 0.0436154, -0.0176242, 1.134, -104.2073212, 1.134, -229.2682953, 1.134, -270.5487976, 0.0436154, 0.0060426, 1.134, 11.5243902, 1.134, -140.1219482, 1.134, -36.341465, 0.0436154, 0.0710002, 1.134, -82.7439041, 1.134, -182.1341553, 1.134, 2.6829269, 0.0436154, -0.0162814, 1.134, -48.6585388, 1.134, -125.8536606, 1.134, 60.7317085, 0.0436154, 0.0339055, 1.134, 323.0487976, 1.134, -196.4024506, 1.134, -48.9024391, , , , , , , , , , , , , , , , , , , , , , 
0.0441346, -0.0045319, 1.1475, 234.8170776, 1.1475, -116.9512253, 1.1475, -179.5731812, 0.0441346, -0.110277, 1.1475, -253.7195129, 1.1475, -114.3902435, 1.1475, 190.0609741, 0.0441346, -0.0283665, 1.1475, 55.4878044, 1.1475, -200.4268341, 1.1475, 66.3414612, 0.0441346, -0.0129244, 1.1475, -103.8414688, 1.1475, -251.646347, 1.1475, -245.7926941, 0.0441346, 0.0109102, 1.1475, 1.2195122, 1.1475, -151.8292694, 1.1475, -48.9634171, 0.0441346, 0.0548867, 1.1475, -85.3658524, 1.1475, -177.0731812, 1.1475, 0.3048781, 0.0441346, -0.0152743, 1.1475, -46.5853653, 1.1475, -143.8414612, 1.1475, 68.1707306, 0.0441346, 0.0323949, 1.1475, 305.1219482, 1.1475, -229.2073212, 1.1475, -63.4756126, , , , , , , , , , , , , , , , , , , , , , 
0.0446538, -0.003357, 1.161, 248.23172, 1.161, -34.5731697, 1.161, -170.4878082, 0.0446538, -0.1022202, 1.161, -251.3414764, 1.161, -12.0121956, 1.161, 183.7804871, 0.0446538, -0.0265202, 1.161, 58.9634171, 1.161, -197.3170776, 1.161, 67.0121994, 0.0446538, -0.0090639, 1.161, -104.6951218, 1.161, -253.23172, 1.161, -228.9634247, 0.0446538, 0.014435, 1.161, -8.6585369, 1.161, -155.8536682, 1.161, -65.3048782, 0.0446538, 0.0243381, 1.161, -89.3902435, 1.161, -181.5243988, 1.161, 0.9756098, 0.0446538, -0.0152743, 1.161, 0, 1.161, 0, 1.161, 0, 0.0446538, 0.0317235, 1.161, 269.6951294, 1.161, -206.9512177, 1.161, -73.9634171, , , , , , , , , , , , , , , , , , , , , , 
0.0451731, -0.0018463, 1.1745, 269.2683105, 1.1745, 58.2317085, 1.1745, -120.5487823, 0.0451731, -0.0914778, 1.1745, -264.8170776, 1.1745, 103.2317123, 1.1745, 144.7561035, 0.0451731, -0.0256809, 1.1745, 61.4634171, 1.1745, -209.512207, 1.1745, 69.3902435, 0.0451731, -0.0065461, 1.1745, -115.4268341, 1.1745, -228.4146423, 1.1745, -196.8292694, 0.0451731, 0.0137636, 1.1745, -12.1951218, 1.1745, -133.9634247, 1.1745, -72.68293, 0.0451731, -0.0198062, 1.1745, -94.4512253, 1.1745, -202.7439117, 1.1745, 0.1219512, 0.0451731, -0.0137636, 1.1745, -47.0731735, 1.1745, -158.2317047, 1.1745, 72.9268341, 0.0451731, 0.0317235, 1.1745, 234.9390259, 1.1745, -151.2195129, 1.1745, -80.7926865, , , , , , , , , , , , , , , , , , , , , , 
0.0456923, -0.0008392, 1.188, 289.8170776, 1.188, 131.8292694, 1.188, -42.0121956, 0.0456923, -0.0788891, 1.188, -247.6219635, 1.188, 246.8902435, 1.188, 78.4756088, 0.0456923, -0.0303807, 1.188, 61.7073174, 1.188, -226.5853729, 1.188, 75.5487823, 0.0456923, -0.003357, 1.188, -188.4756165, 1.188, 18.5975609, 1.188, -115.4878082, 0.0456923, 0.0135958, 1.188, -10.8536587, 1.188, -102.1951218, 1.188, -72.4390259, 0.0456923, -0.068986, 1.188, -100.3048782, 1.188, -233.9634247, 1.188, -3.2317073, 0.0456923, -0.0124208, 1.188, 0, 1.188, 0, 1.188, 0, 0.0456923, 0.03122, 1.188, 241.646347, 1.188, -186.5243988, 1.188, -152.4390259, , , , , , , , , , , , , , , , , , , , , , 
0.0462115, 0.0008392, 1.2015, 287.8658752, 1.2015, 228.9634247, 1.2015, 31.6463413, 0.0462115, -0.064622, 1.2015, -199.6341553, 1.2015, 278.6585388, 1.2015, 21.8902435, 0.0462115, -0.0354162, 1.2015, 66.5243912, 1.2015, -261.8902588, 1.2015, 85, 0.0462115, -0.0008392, 1.2015, -60.3048782, 1.2015, -56.4024391, 1.2015, 27.1951218, 0.0462115, 0.0132601, 1.2015, -13.0487804, 1.2015, -87.7439041, 1.2015, -72.0121994, 0.0462115, -0.0950027, 1.2015, -106.7682953, 1.2015, -269.512207, 1.2015, -5.1829271, 0.0462115, -0.0132601, 1.2015, -48.2926826, 1.2015, -114.7561035, 1.2015, 78.1097565, 0.0462115, 0.030045, 1.2015, -167.0121918, 1.2015, 128.1707306, 1.2015, -29.2073174, , , , , , , , , , , , , , , , , , , , , , 
0.0467308, 0.0031891, 1.215, 298.9634094, 1.215, 270.73172, 1.215, 55.8536606, 0.0467308, -0.047837, 1.215, -138.9024353, 1.215, 308.2926941, 1.215, -13.780488, 0.0467308, -0.0364233, 1.215, 73.4146347, 1.215, -280.1219482, 1.215, 83.4756088, 0.0467308, -0.0008392, 1.215, 159.8170776, 1.215, 82.0121994, 1.215, 171.0365906, 0.0467308, 0.0119173, 1.215, -28.9024391, 1.215, -81.7073212, 1.215, -68.9634171, 0.0467308, -0.0797284, 1.215, -110.7317123, 1.215, -270.1829224, 1.215, 2.8658538, 0.0467308, -0.0149386, 1.215, -41.0365868, 1.215, -110.18293, 1.215, 83.3536606, 0.0467308, 0.0283665, 1.215, -280.6097717, 1.215, 195.3048859, 1.215, 38.2926826, , , , , , , , , , , , , , , , , , , , , , 
0.04725, 0.0063783, 1.2285, 311.5853882, 1.2285, 367.9878235, 1.2285, 74.3292694, 0.04725, -0.0357519, 1.2285, 0, 1.2285, 0, 1.2285, 0, 0.04725, -0.0350805, 1.2285, 92.8048782, 1.2285, -306.4634094, 1.2285, 71.4634171, 0.04725, -0.0028534, 1.2285, 36.5243912, 1.2285, 129.2682953, 1.2285, 106.2195129, 0.04725, 0.0119173, 1.2285, -52.7439041, 1.2285, -98.4146347, 1.2285, -62.1341476, 0.04725, -0.0391089, 1.2285, -105.9756088, 1.2285, -274.8780518, 1.2285, 11.5243902, 0.04725, -0.0162814, 1.2285, -35.1829262, 1.2285, -95.7317123, 1.2285, 86.0975647, 0.04725, 0.026688, 1.2285, -110.7317123, 1.2285, 58.7804909, 1.2285, 63.9024391, , , , , , , , , , , , , , , , , , , , , , 
0.0477692, 0.0092317, 1.242, 244.5731812, 1.242, 348.1707458, 1.242, 25.060976, 0.0477692, -0.0377661, 1.242, -170.5487823, 1.242, 264.512207, 1.242, -0.3048781, 0.0477692, -0.0352483, 1.242, 105.4268341, 1.242, -328.23172, 1.242, 61.341465, 0.0477692, -0.0035248, 1.242, -15.3658543, 1.242, 57.5609779, 1.242, 88.4756088, 0.0477692, 0.0132601, 1.242, -51.2804909, 1.242, -125.5487823, 1.242, -62.0731735, 0.0477692, -0.0077211, 1.242, -97.6219559, 1.242, -228.7195129, 1.242, 11.0975609, 0.0477692, -0.0162814, 1.242, -28.9024391, 1.242, -102.0121994, 1.242, 84.2073212, 0.0477692, 0.0265202, 1.242, -111.3414688, 1.242, 157.5, 1.242, -88.9024429, , , , , , , , , , , , , , , , , , , , , , 
0.0482885, 0.0082246, 1.2555, 95, 1.2555, 88.7195129, 1.2555, -51.8902435, 0.0482885, -0.047837, 1.2555, -140.8536682, 1.2555, -65.1219559, 1.2555, 57.5609779, 0.0482885, -0.0350805, 1.2555, 90.6097565, 1.2555, -288.4756165, 1.2555, 74.0853653, 0.0482885, -0.0035248, 1.2555, 50.3658562, 1.2555, -37.1341476, 1.2555, 47.2560997, 0.0482885, 0.0132601, 1.2555, -38.5975609, 1.2555, -157.3780518, 1.2555, -65.6707306, 0.0482885, -0.0028534, 1.2555, -95.18293, 1.2555, -197.86586, 1.2555, 1.2804878, 0.0482885, -0.0142672, 1.2555, -13.2317076, 1.2555, -121.4634171, 1.2555, 80.2439041, 0.0482885, 0.026688, 1.2555, -91.0365906, 1.2555, -372.4390259, 1.2555, -19.8780499, , , , , , , , , , , , , , , , , , , , , , 
0.0488077, 0.0052033, 1.269, 31.5243912, 1.269, 0.0609756, 1.269, -124.0243912, 0.0488077, -0.061265, 1.269, -20.9146347, 1.269, 16.7682934, 1.269, 129.9390259, 0.0488077, -0.0317235, 1.269, 34.8780479, 1.269, -193.2926941, 1.269, 92.5, 0.0488077, -0.0041962, 1.269, 70.2439041, 1.269, -68.1097565, 1.269, 0.7317073, 0.0488077, 0.0146029, 1.269, -16.280489, 1.269, -109.8780518, 1.269, -84.2073212, 0.0488077, -0.0129244, 1.269, -68.8414688, 1.269, -138.1097565, 1.269, -19.0243912, 0.0488077, -0.01561, 1.269, 17.3780499, 1.269, -109.9390259, 1.269, 79.3902435, 0.0488077, 0.0256809, 1.269, -51.7682953, 1.269, -92.5609741, 1.269, 37.8048782, , , , , , , , , , , , , , , , , , , , , , 
0.0493269, 0.0065461, 1.2825, 8.2317076, 1.2825, -31.9512196, 1.2825, -107.9268341, 0.0493269, -0.0740215, 1.2825, -18.9024391, 1.2825, 199.3292694, 1.2825, 82.9878082, 0.0493269, -0.0310521, 1.2825, -57.0731735, 1.2825, -30, 1.2825, 79.146347, 0.0493269, -0.0046998, 1.2825, 1.0365853, 1.2825, -10.6097565, 1.2825, -33.9634171, 0.0493269, 0.0182956, 1.2825, 3.8414636, 1.2825, -10.060976, 1.2825, -110.6707306, 0.0493269, -0.0271916, 1.2825, -19.6341476, 1.2825, -95.7317123, 1.2825, -22.3170738, 0.0493269, -0.0194705, 1.2825, 0, 1.2825, 0, 1.2825, 0, 0.0493269, 0.023331, 1.2825, 29.8780499, 1.2825, 53.7195129, 1.2825, 8.2317076, , , , , , , , , , , , , , , , , , , , , , 
0.0498462, 0.0102388, 1.296, 7.0121951, 1.296, 20, 1.296, -1.2804878, 0.0498462, -0.0807355, 1.296, -38.9024391, 1.296, -63.841465, 1.296, -29.5121956, 0.0498462, -0.030045, 1.296, -96.7682953, 1.296, 13.0487804, 1.296, 25.1219521, 0.0498462, -0.0041962, 1.296, -40.6097565, 1.296, -40.8536606, 1.296, -24.0853672, 0.0498462, 0.0223239, 1.296, 25.4878063, 1.296, 20.2439022, 1.296, -89.0853653, 0.0498462, -0.04448, 1.296, 27.0121956, 1.296, -75.3048782, 1.296, -27.7439022, 0.0498462, -0.0229953, 1.296, 44.3902435, 1.296, -74.0243912, 1.296, 57.1951218, 0.0498462, 0.0209812, 1.296, 37.8658562, 1.296, 76.5243912, 1.296, -61.8292694, , , , , , , , , , , , , , , , , , , , , , 
0.0503654, 0.0135958, 1.3095, 11.4024391, 1.3095, -69.5731735, 1.3095, 46.2195129, 0.0503654, -0.0834211, 1.3095, -14.4512196, 1.3095, -217.9878082, 1.3095, -66.8292694, 0.0503654, -0.0293736, 1.3095, -79.8780518, 1.3095, -50, 1.3095, -43.4756126, 0.0503654, -0.0038605, 1.3095, -50.3048782, 1.3095, -66.1585388, 1.3095, -39.5731735, 0.0503654, 0.0240024, 1.3095, 23.1097565, 1.3095, -12.560976, 1.3095, -46.5243912, 0.0503654, -0.0533761, 1.3095, 64.0853653, 1.3095, -52.4390259, 1.3095, -16.3414631, 0.0503654, -0.024506, 1.3095, 42.1341476, 1.3095, -52.1341476, 1.3095, 34.3902435, 0.0503654, 0.0193027, 1.3095, 67.68293, 1.3095, 16.2195129, 1.3095, -60.3048782, , , , , , , , , , , , , , , , , , , , , , 
0.0508846, 0.0119173, 1.323, 11.219512, 1.323, -164.2682953, 1.323, 9.3292685, 0.0508846, -0.0861067, 1.323, -2.7439024, 1.323, -194.4512177, 1.323, -16.4634151, 0.0508846, -0.0276951, 1.323, -22.1341476, 1.323, -92.8658524, 1.323, -74.8780518, 0.0508846, -0.0050355, 1.323, -27.1951218, 1.323, -70.9756088, 1.323, -39.2682953, 0.0508846, 0.0251774, 1.323, -0.5487805, 1.323, -41.9512215, 1.323, -34.8170738, 0.0508846, -0.0491798, 1.323, 70.7317123, 1.323, -17.1951218, 1.323, 12.1951218, 0.0508846, -0.0256809, 1.323, 33.4756088, 1.323, -38.2317085, 1.323, 28.1707325, 0.0508846, 0.0196384, 1.323, 51.7682953, 1.323, -69.8170776, 1.323, -35.4268303, , , , , , , , , , , , , , , , , , , , , , 
0.0514038, 0.0092317, 1.3365, -15.5487804, 1.3365, -162.5609741, 1.3365, -51.5243912, 0.0514038, -0.0877852, 1.3365, -6.7073174, 1.3365, -134.2682953, 1.3365, 27.560976, 0.0514038, -0.0283665, 1.3365, -0.1219512, 1.3365, -74.2682953, 1.3365, -68.8414688, 0.0514038, -0.0068818, 1.3365, -5.670732, 1.3365, -48.4756126, 1.3365, -29.5731716, 0.0514038, 0.027863, 1.3365, -23.2926826, 1.3365, -30, 1.3365, -45.4268303, 0.0514038, -0.0417945, 1.3365, 36.7682953, 1.3365, 60.4878044, 1.3365, 28.9024391, 0.0514038, -0.0283665, 1.3365, 24.0853672, 1.3365, -24.2682934, 1.3365, 34.8170738, 0.0514038, 0.0199741, 1.3365, -0.5487805, 1.3365, -18.4756107, 1.3365, -11.5853662, , , , , , , , , , , , , , , , , , , , , , 
0.0519231, 0.0099031, 1.35, -9.4512196, 1.35, -87.1951218, 1.35, -58.0487823, 0.0519231, -0.0861067, 1.35, -12.4390249, 1.35, -69.8780518, 1.35, 45.9146347, 0.0519231, -0.0317235, 1.35, 31.4024391, 1.35, -8.780488, 1.35, -40.7926826, 0.0519231, -0.0075532, 1.35, 20.1829281, 1.35, 16.7073174, 1.35, -12.560976, 0.0519231, 0.0320592, 1.35, -31.7682934, 1.35, -20.3048782, 1.35, -52.7439041, 0.0519231, -0.0307164, 1.35, 6.2195125, 1.35, 106.0975647, 1.35, 35.3658562, 0.0519231, -0.0307164, 1.35, 18.4146347, 1.35, -5.1219511, 1.35, 47.0731735, 0.0519231, 0.021149, 1.35, -16.8292694, 1.35, 35.1829262, 1.35, 3.2926829, , , , , , , , , , , , , , , , , , , , , , 
0.0524423, 0.0129244, 1.3635, 5.7317076, 1.3635, -46.0365868, 1.3635, -49.7560997, 0.0524423, -0.0835889, 1.3635, -14.8780489, 1.3635, 21.7682934, 1.3635, 43.1707344, 0.0524423, -0.0322271, 1.3635, 30, 1.3635, 25.1829281, 1.3635, -17.6219521, 0.0524423, -0.0078889, 1.3635, 16.9512196, 1.3635, 58.9634171, 1.3635, -13.4756098, 0.0524423, 0.0374304, 1.3635, -20.9756107, 1.3635, -11.4634151, 1.3635, -63.4146347, 0.0524423, -0.0166171, 1.3635, -4.0853658, 1.3635, 75, 1.3635, 37.0121956, 0.0524423, -0.0297093, 1.3635, 23.4146347, 1.3635, 18.8414631, 1.3635, 57.3170738, 0.0524423, 0.023331, 1.3635, -10.9756098, 1.3635, 55.7926826, 1.3635, 7.5, , , , , , , , , , , , , , , , , , , , , , 
0.0529615, 0.0152743, 1.377, 43.7804871, 1.377, 23.1707325, 1.377, -26.5243912, 0.0529615, -0.0815747, 1.377, -29.5731716, 1.377, 52.1341476, 1.377, 25.7317085, 0.0529615, -0.0290379, 1.377, 9.3902445, 1.377, 67.68293, 1.377, -2.195122, 0.0529615, -0.0078889, 1.377, 4.4512196, 1.377, 63.4756126, 1.377, -18.7195129, 0.0529615, 0.0431373, 1.377, 17.9268303, 1.377, 9.5121956, 1.377, -64.3902435, 0.0529615, -0.0070497, 1.377, -6.6463418, 1.377, 31.5243912, 1.377, 35.3658562, 0.0529615, -0.0270237, 1.377, 28.3536587, 1.377, 25.1829281, 1.377, 57.8658562, 0.0529615, 0.0246738, 1.377, 7.4390244, 1.377, 60.5487823, 1.377, 6.7073174, , , , , , , , , , , , , , , , , , , , , , 
0.0534808, 0.0154421, 1.3905, 63.841465, 1.3905, 55.0609779, 1.3905, -8.3536587, 0.0534808, -0.076875, 1.3905, -38.9634171, 1.3905, 36.8292694, 1.3905, 4.4512196, 0.0534808, -0.027863, 1.3905, 10.7926836, 1.3905, 80.18293, 1.3905, -10.7926836, 0.0534808, -0.0097353, 1.3905, -1.0365853, 1.3905, 36.1585388, 1.3905, -16.6463413, 0.0534808, 0.0488441, 1.3905, 24.8170738, 1.3905, 7.8048782, 1.3905, -58.9634171, 0.0534808, -0.0140993, 1.3905, -8.6585369, 1.3905, -20.8536587, 1.3905, 42.2560997, 0.0534808, -0.0243381, 1.3905, 28.5365868, 1.3905, 23.4146347, 1.3905, 52.8048782, 0.0534808, 0.023331, 1.3905, 14.8780489, 1.3905, 46.5853653, 1.3905, -2.5, , , , , , , , , , , , , , , , , , , , , , 
0.054, 0.0151064, 1.404, 61.7073174, 1.404, 46.7073174, 1.404, 6.5243902, 0.054, -0.0716716, 1.404, -40.6097565, 1.404, 26.4634151, 1.404, -3.9024391, 0.054, -0.0270237, 1.404, 28.3536587, 1.404, -6.280488, 1.404, -32.3780479, 0.054, -0.0135958, 1.404, 4.3292685, 1.404, 3.8414636, 1.404, -9.8780489, 0.054, 0.0518654, 1.404, 7.7439027, 1.404, 16.5853653, 1.404, -41.0365868, 0.054, -0.0364233, 1.404, -10.5487804, 1.404, -39.8170738, 1.404, 46.8902435, 0.054, -0.023331, 1.404, 22.9268303, 1.404, 14.7560978, 1.404, 33.2317085, 0.054, 0.0213169, 1.404, 8.3536587, 1.404, 13.5975609, 1.404, -10, , , , , , , , , , , , , , , , , , , , , , 
0.0545192, 0.0162814, 1.4175, 44.0853653, 1.4175, 25.8536587, 1.4175, 15.4878054, 0.0545192, -0.0726787, 1.4175, -38.0487823, 1.4175, 7.9878049, 1.4175, -13.4756098, 0.0545192, -0.026688, 1.4175, 38.5975609, 1.4175, -109.2073212, 1.4175, -33.5365868, 0.0545192, -0.0109102, 1.4175, 8.780488, 1.4175, -15.6097565, 1.4175, -7.7439027, 0.0545192, 0.0528725, 1.4175, -17.1341476, 1.4175, 25.3048782, 1.4175, -19.7560978, 0.0545192, -0.0602579, 1.4175, -12.8658543, 1.4175, -83.3536606, 1.4175, 45.8536606, 0.0545192, -0.0243381, 1.4175, 12.9878054, 1.4175, 2.3780489, 1.4175, 10.2439022, 0.0545192, 0.0199741, 1.4175, 5.0609756, 1.4175, -10, 1.4175, -10, , , , , , , , , , , , , , , , , , , , , , 
0.0550385, 0.0159457, 1.431, 30.9146347, 1.431, 10, 1.431, 17.6829281, 0.0550385, -0.0787213, 1.431, -32.8048782, 1.431, 0.1829268, 1.431, -13.7195129, 0.0550385, -0.0260166, 1.431, 37.9878044, 1.431, -158.5365906, 1.431, -15.3658543, 0.0550385, 0.0016785, 1.431, 11.5243902, 1.431, -14.0243902, 1.431, -8.1707315, 0.0550385, 0.0542153, 1.431, -38.1097565, 1.431, 20.7926826, 1.431, -4.6341462, 0.0550385, -0.0750286, 1.431, -17.2560978, 1.431, -101.2195129, 1.431, 32.1951218, 0.0550385, -0.0236667, 1.431, 3.2317073, 1.431, -11.5853662, 1.431, -5.7926831, 0.0550385, 0.0193027, 1.431, 1.5853659, 1.431, -10.5487804, 1.431, -6.6463418, , , , , , , , , , , , , , , , , , , , , , 
0.0555577, 0.0139315, 1.4445, 24.3292694, 1.4445, 4.0243902, 1.4445, 16.0365849, 0.0555577, -0.0891279, 1.4445, -26.6463413, 1.4445, -2.0121951, 1.4445, -6.4024391, 0.0555577, -0.0256809, 1.4445, 33.0487823, 1.4445, -151.9512177, 1.4445, 6.7682929, 0.0555577, 0.005539, 1.4445, 12.5, 1.4445, 4.2682929, 1.4445, -8.5365858, 0.0555577, 0.0552224, 1.4445, -46.6463432, 1.4445, 7.5609756, 1.4445, 0.1829268, 0.0555577, -0.0807355, 1.4445, -24.3292694, 1.4445, -106.7073212, 1.4445, 15.9756098, 0.0555577, -0.0226596, 1.4445, -2.0121951, 1.4445, -23.9024391, 1.4445, -8.5365858, 0.0555577, 0.0166171, 1.4445, -1.402439, 1.4445, 11.341464, 1.4445, -3.2317073, , , , , , , , , , , , , , , , , , , , , , 
0.0560769, 0.0142672, 1.458, 19.4512196, 1.458, -1.2195122, 1.458, 8.5975609, 0.0560769, -0.0995346, 1.458, -21.2195129, 1.458, -3.4146342, 1.458, 3.4756098, 0.0560769, -0.0253452, 1.458, 22.3170738, 1.458, -100.4878082, 1.458, 21.3414631, 0.0560769, 0.0011749, 1.458, 9.3902445, 1.458, 21.7682934, 1.458, -9.9390249, 0.0560769, 0.0555581, 1.458, -40.7317085, 1.458, -5.0609756, 1.458, -3.0487804, 0.0560769, -0.0688182, 1.458, -30.4878063, 1.458, -101.4634171, 1.458, 5.7926831, 0.0560769, -0.0206455, 1.458, -6.4024391, 1.458, -30.1219521, 1.458, 2.0121951, 0.0560769, 0.0125887, 1.458, -0.1219512, 1.458, 31.280489, 1.458, -1.9512196, , , , , , , , , , , , , , , , , , , , , , 
0.0565962, 0.0146029, 1.4715, 16.4024391, 1.4715, -10, 1.4715, -1.7682927, 0.0565962, -0.1049058, 1.4715, -19.8170738, 1.4715, -8.9024391, 1.4715, 12.5, 0.0565962, -0.0250095, 1.4715, 3.9634147, 1.4715, -43.4756126, 1.4715, 17.1951218, 0.0565962, -0.0015106, 1.4715, 5.4878049, 1.4715, 24.8780499, 1.4715, -10.8536587, 0.0565962, 0.0548867, 1.4715, -19.0243912, 1.4715, -22.9878063, 1.4715, -10.1829271, 0.0565962, -0.0392767, 1.4715, -27.5, 1.4715, -84.0853653, 1.4715, 5.4878049, 0.0565962, -0.0186313, 1.4715, -11.4024391, 1.4715, -33.5365868, 1.4715, 19.1463413, 0.0565962, 0.0105745, 1.4715, 2.6829269, 1.4715, 34.6341476, 1.4715, -4.2073174, , , , , , , , , , , , , , , , , , , , , , 
0.0571154, 0.0135958, 1.485, 13.2926836, 1.485, -19.0853672, 1.485, -10.7317076, 0.0571154, -0.1082628, 1.485, -22.1951218, 1.485, -19.8170738, 1.485, 15.4268293, 0.0571154, -0.0256809, 1.485, -3.5365853, 1.485, -17.7439022, 1.485, -3.2926829, 0.0571154, -0.0028534, 1.485, 5.9756098, 1.485, 15.3658543, 1.485, -9.4512196, 0.0571154, 0.0552224, 1.485, 7.2560978, 1.485, -47.9878044, 1.485, -18.9024391, 0.0571154, -0.0129244, 1.485, -15.7926836, 1.485, -59.7560997, 1.485, 11.1585369, 0.0571154, -0.0166171, 1.485, -17.2560978, 1.485, -42.0121956, 1.485, 32.9268303, 0.0571154, 0.0078889, 1.485, 1.5243902, 1.485, 22.7439022, 1.485, -6.9512196, , , , , , , , , , , , , , , , , , , , , , 
0.0576346, 0.0132601, 1.4985, 10, 1.4985, -23.5975609, 1.4985, -13.2317076, 0.0576346, -0.1032273, 1.4985, -24.0853672, 1.4985, -31.5853672, 1.4985, 12.6829271, 0.0576346, -0.0270237, 1.4985, 3.7804878, 1.4985, -44.2073174, 1.4985, -14.5731707, 0.0576346, -0.0068818, 1.4985, 8.1707315, 1.4985, 3.1707318, 1.4985, -7.6219516, 0.0576346, 0.0558938, 1.4985, 24.9390259, 1.4985, -67.8658524, 1.4985, -25.6707325, 0.0576346, -0.0035248, 1.4985, -5.609756, 1.4985, -54.8780518, 1.4985, 13.2317076, 0.0576346, -0.0152743, 1.4985, -24.0243912, 1.4985, -58.5975609, 1.4985, 37.5609779, 0.0576346, 0.0026856, 1.4985, -0.4878049, 1.4985, 6.5853658, 1.4985, -8.780488, , , , , , , , , , , , , , , , , , , , , , 
0.0581538, 0.0105745, 1.512, 9.0853662, 1.512, -18.9634151, 1.512, -9.2682924, 0.0581538, -0.0867781, 1.512, -20.7926826, 1.512, -30, 1.512, 6.2195125, 0.0581538, -0.0283665, 1.512, 3.5975611, 1.512, -49.2073174, 1.512, -8.6585369, 0.0581538, -0.0125887, 1.512, 9.2073174, 1.512, -4.3292685, 1.512, -7.0731707, 0.0581538, 0.0569009, 1.512, 26.8292694, 1.512, -71.9512177, 1.512, -26.5853672, 0.0581538, 0.0043641, 1.512, -1.6463414, 1.512, -24.8780499, 1.512, 9.2682924, 0.0581538, -0.0149386, 1.512, -28.2926826, 1.512, -74.0243912, 1.512, 29.8170738, 0.0581538, -0.0005035, 1.512, -0.7926829, 1.512, 1.097561, 1.512, -9.0243902, , , , , , , , , , , , , , , , , , , , , , 
0.0586731, 0.0085603, 1.5255, 8.9634151, 1.5255, -15.4878054, 1.5255, -5.9146342, 0.0586731, -0.0652934, 1.5255, -15.6097565, 1.5255, -24.1463413, 1.5255, 0, 0.0586731, -0.0290379, 1.5255, -2.2560976, 1.5255, -36.0975609, 1.5255, -2.3170731, 0.0586731, -0.0176242, 1.5255, 8.841464, 1.5255, -5.4268293, 1.5255, -7.0731707, 0.0586731, 0.0605936, 1.5255, 17.6219521, 1.5255, -69.9390259, 1.5255, -21.3414631, 0.0586731, 0.0112459, 1.5255, 1.0365853, 1.5255, 12.8658543, 1.5255, -0.6707317, 0.0586731, -0.0140993, 1.5255, -27.2560978, 1.5255, -80.7317123, 1.5255, 12.9268293, 0.0586731, -0.0003357, 1.5255, -0.5487805, 1.5255, -1.6463414, 1.5255, -9.3902445, , , , , , , , , , , , , , , , , , , , , , 
0.0591923, 0.0092317, 1.539, 7.6829271, 1.539, -13.7195129, 1.539, 0.0609756, 0.0591923, -0.0458228, 1.539, 0, 1.539, 0, 1.539, 0, 0.0591923, -0.0290379, 1.539, -11.341464, 1.539, -19.0243912, 1.539, 11.5243902, 0.0591923, -0.0203098, 1.539, 7.1951222, 1.539, -1.4634147, 1.539, -7.5, 0.0591923, 0.0647898, 1.539, 2.0731707, 1.539, -59.2073174, 1.539, -8.6585369, 0.0591923, 0.0115816, 1.539, -1.7073171, 1.539, 46.5853653, 1.539, -9.5731707, 0.0591923, -0.012253, 1.539, -22.0731716, 1.539, -74.7560959, 1.539, -4.3292685, 0.0591923, 0.0015106, 1.539, 0.3658537, 1.539, 5.609756, 1.539, -9.2073174, , , , , , , , , , , , , , , , , , , , , , 
0.0597115, 0.0092317, 1.5525, 6.0365853, 1.5525, -15.6097565, 1.5525, 2.8658538, 0.0597115, -0.0283665, 1.5525, -12.1341467, 1.5525, -12.1341467, 1.5525, -1.8902439, 0.0597115, -0.0280308, 1.5525, -9.7560978, 1.5525, 7.4390244, 1.5525, 22.3780499, 0.0597115, -0.0208133, 1.5525, 6.3414636, 1.5525, 4.0853658, 1.5525, -8.2317076, 0.0597115, 0.0659648, 1.5525, -8.4756098, 1.5525, -43.7195129, 1.5525, 5.5487804, 0.0597115, 0.0105745, 1.5525, -7.1341467, 1.5525, 62.1951218, 1.5525, -11.7073174, 0.0597115, -0.011078, 1.5525, -13.9634151, 1.5525, -51.341465, 1.5525, -15, 0.0597115, 0.0011749, 1.5525, 0.2439024, 1.5525, 14.6951227, 1.5525, -8.3536587, , , , , , , , , , , , , , , , , , , , , , 
0.0602308, 0.0078889, 1.566, 4.2073174, 1.566, -6.5243902, 1.566, 1.2804878, 0.0602308, -0.0112459, 1.566, -11.280488, 1.566, -9.5121956, 1.566, -0.6097561, 0.0602308, -0.0283665, 1.566, -5.9146342, 1.566, 42.0731735, 1.566, 29.4512196, 0.0602308, -0.0216526, 1.566, 6.2195125, 1.566, 7.6219516, 1.566, -10.060976, 0.0602308, 0.0669718, 1.566, -10.4878054, 1.566, -21.8292694, 1.566, 14.6951227, 0.0602308, 0.012253, 1.566, -18.3536587, 1.566, 79.0853653, 1.566, -13.7195129, 0.0602308, -0.0092317, 1.566, -6.890244, 1.566, -18.5975609, 1.566, -17.1951218, 0.0602308, -0.0001678, 1.566, 0.4268293, 1.566, 17.8048782, 1.566, -7.5, , , , , , , , , , , , , , , , , , , , , , 
0.06075, 0.0068818, 1.5795, 2.195122, 1.5795, 5.7926831, 1.5795, -3.2926829, 0.06075, 0.0073854, 1.5795, -12.6219511, 1.5795, -8.2317076, 1.5795, -0.1219512, 0.06075, -0.0290379, 1.5795, -6.5243902, 1.5795, 53.5365868, 1.5795, 32.2560997, 0.06075, -0.0231632, 1.5795, 6.4024391, 1.5795, 8.841464, 1.5795, -11.219512, 0.06075, 0.0679789, 1.5795, -6.890244, 1.5795, 2.0121951, 1.5795, 18.3536587, 0.06075, 0.0105745, 1.5795, -25.3048782, 1.5795, 76.4634171, 1.5795, -14.0853662, 0.06075, -0.0077211, 1.5795, -5.4878049, 1.5795, 6.8292685, 1.5795, -14.6951227, 0.06075, 0.0001678, 1.5795, 1.2804878, 1.5795, 16.7682934, 1.5795, -7.2560978, , , , , , , , , , , , , , , , , , , , , , 
0.0612692, 0.0015106, 1.593, 0.4878049, 1.593, 10.5487804, 1.593, -6.0975609, 0.0612692, 0.0219883, 1.593, -14.3292685, 1.593, -7.5609756, 1.593, 0.0609756, 0.0612692, -0.0293736, 1.593, -4.6341462, 1.593, 36.4024391, 1.593, 33.2926826, 0.0612692, -0.0223239, 1.593, 6.280488, 1.593, 6.3414636, 1.593, -11.4634151, 0.0612692, 0.0679789, 1.593, -1.7073171, 1.593, 15.9756098, 1.593, 18.780489, 0.0612692, 0.0011749, 1.593, -29.7560978, 1.593, 51.4024391, 1.593, -13.1097565, 0.0612692, -0.0072175, 1.593, -12.3170738, 1.593, 15.9756098, 1.593, -12.4390249, 0.0612692, 0.0015106, 1.593, 1.8292683, 1.593, 13.9024391, 1.593, -7.8658538, , , , , , , , , , , , , , , , , , , , , , 
0.0617885, -0.0035248, 1.6065, -1.5853659, 1.6065, 4.3292685, 1.6065, -5.670732, 0.0617885, 0.0276951, 1.6065, -14.6951227, 1.6065, -6.280488, 1.6065, 0.9756098, 0.0617885, -0.0292058, 1.6065, -0.6097561, 1.6065, 16.6463413, 1.6065, 36.7682953, 0.0617885, -0.0186313, 1.6065, 6.7073174, 1.6065, 1.5853659, 1.6065, -10.7926836, 0.0617885, 0.0674754, 1.6065, 5.7317076, 1.6065, 20.1829281, 1.6065, 19.0853672, 0.0617885, -0.0077211, 1.6065, -36.5243912, 1.6065, 25.2439022, 1.6065, -12.8658543, 0.0617885, -0.0078889, 1.6065, -17.560976, 1.6065, 15.8536587, 1.6065, -12.4390249, 0.0617885, 0.0045319, 1.6065, 1.3414634, 1.6065, 10.3658543, 1.6065, -8.9024391, , , , , , , , , , , , , , , , , , , , , , 
0.0623077, -0.0068818, 1.62, -6.2195125, 1.62, -5.0609756, 1.62, -3.4146342, 0.0623077, 0.0273594, 1.62, 0, 1.62, 0, 1.62, 0, 0.0623077, -0.0288701, 1.62, 3.6585367, 1.62, 0.0609756, 1.62, 43.1097565, 0.0623077, -0.0149386, 1.62, 7.0121951, 1.62, -3.0487804, 1.62, -9.2682924, 0.0623077, 0.066804, 1.62, 13.2317076, 1.62, 19.939024, 1.62, 21.0975609, 0.0623077, -0.01561, 1.62, -41.9512215, 1.62, -2.3780489, 1.62, -16.4024391, 0.0623077, -0.0095674, 1.62, -26.4024391, 1.62, 12.6829271, 1.62, -14.6341467, 0.0623077, 0.0058747, 1.62, 0.1829268, 1.62, 5.3658538, 1.62, -10, , , , , , , , , , , , , , , , , , , , , , 
0.0628269, -0.0099031, 1.6335, -11.0975609, 1.6335, -10.3658543, 1.6335, -1.5243902, 0.0628269, 0.03122, 1.6335, -3.2926829, 1.6335, -10, 1.6335, 2.0121951, 0.0628269, -0.0273594, 1.6335, 2.6219513, 1.6335, -17.439024, 1.6335, 47.3780518, 0.0628269, -0.0115816, 1.6335, 6.890244, 1.6335, -5.4268293, 1.6335, -7.8048782, 0.0628269, 0.0669718, 1.6335, 18.6585369, 1.6335, 15.7926836, 1.6335, 23.780489, 0.0628269, -0.0236667, 1.6335, -44.0243912, 1.6335, -15.5487804, 1.6335, -22.560976, 0.0628269, -0.0095674, 1.6335, -29.0243912, 1.6335, 10, 1.6335, -18.5975609, 0.0628269, 0.0052033, 1.6335, -0.6097561, 1.6335, 2.6219513, 1.6335, -10.1219511, , , , , , , , , , , , , , , , , , , , , , 
0.0633462, -0.0151064, 1.647, -12.0121956, 1.647, -13.2317076, 1.647, -1.7073171, 0.0633462, 0.0360876, 1.647, 0.5487805, 1.647, -10.8536587, 1.647, 2.5, 0.0633462, -0.0276951, 1.647, -0.1219512, 1.647, -31.341465, 1.647, 48.6585388, 0.0633462, -0.0119173, 1.647, 8.1707315, 1.647, -3.8414636, 1.647, -6.1585369, 0.0633462, 0.0663005, 1.647, 20.3658543, 1.647, 7.1341467, 1.647, 25.7317085, 0.0633462, -0.0243381, 1.647, -43.7804871, 1.647, -26.0975609, 1.647, -30.3658543, 0.0633462, -0.0082246, 1.647, -27.6829281, 1.647, 6.9512196, 1.647, -20.8536587, 0.0633462, 0.0043641, 1.647, -2.804878, 1.647, 2.7439024, 1.647, -9.5121956, , , , , , , , , , , , , , , , , , , , , , 
0.0638654, -0.0193027, 1.6605, -8.5975609, 1.6605, -10.9146347, 1.6605, -3.9634147, 0.0638654, 0.036759, 1.6605, 0.1829268, 1.6605, -12.0121956, 1.6605, 3.1097562, 0.0638654, -0.0280308, 1.6605, -10.9146347, 1.6605, -29.1463413, 1.6605, 47.4390259, 0.0638654, -0.0124208, 1.6605, 10.1219511, 1.6605, -3.9634147, 1.6605, -4.9390244, 0.0638654, 0.0649577, 1.6605, 20.2439022, 1.6605, 0.7317073, 1.6605, 26.6463413, 0.0638654, -0.0146029, 1.6605, -38.1097565, 1.6605, -24.8170738, 1.6605, -38.9634171, 0.0638654, -0.008896, 1.6605, -26.4024391, 1.6605, 1.1585366, 1.6605, -20.7317085, 0.0638654, 0.002182, 1.6605, -4.2073174, 1.6605, 3.0487804, 1.6605, -9.1463413, , , , , , , , , , , , , , , , , , , , , , 
0.0643846, -0.0209812, 1.674, -6.4024391, 1.674, -8.719512, 1.674, -5.2439027, 0.0643846, 0.0387732, 1.674, -2.3170731, 1.674, -17.0121956, 1.674, 2.5609756, 0.0643846, -0.0283665, 1.674, -29.8780499, 1.674, -21.0975609, 1.674, 44.6341476, 0.0643846, -0.0112459, 1.674, 11.0975609, 1.674, -5.670732, 1.674, -4.2073174, 0.0643846, 0.0656291, 1.674, 18.2926826, 1.674, -16.4024391, 1.674, 28.5365868, 0.0643846, -0.0050355, 1.674, -24.8780499, 1.674, -8.5365858, 1.674, -49.0243912, 0.0643846, -0.0104067, 1.674, -26.6463413, 1.674, -7.5609756, 1.674, -19.2073174, 0.0643846, -0.0036927, 1.674, -5.4878049, 1.674, 1.402439, 1.674, -8.4146347, , , , , , , , , , , , , , , , , , , , , , 
0.0649038, -0.0213169, 1.6875, -4.4512196, 1.6875, -5.8536587, 1.6875, -7.8048782, 0.0649038, 0.047837, 1.6875, -5.0609756, 1.6875, -15, 1.6875, 1.5243902, 0.0649038, -0.0290379, 1.6875, -46.5853653, 1.6875, -21.7682934, 1.6875, 41.5243912, 0.0649038, -0.0112459, 1.6875, 11.6463413, 1.6875, -7.7439027, 1.6875, -4.2073174, 0.0649038, 0.0686503, 1.6875, 16.3414631, 1.6875, -37.8658562, 1.6875, 30.3048782, 0.0649038, -0.0008392, 1.6875, -11.5243902, 1.6875, 4.5121951, 1.6875, -59.8170738, 0.0649038, -0.0095674, 1.6875, -29.0853672, 1.6875, -18.0487804, 1.6875, -18.5365849, 0.0649038, -0.0149386, 1.6875, -5.7317076, 1.6875, 0.3048781, 1.6875, -8.0487804, , , , , , , , , , , , , , , , , , , , , , 
0.0654231, -0.0243381, 1.701, -6.4634147, 1.701, -4.7560978, 1.701, -8.719512, 0.0654231, 0.0574044, 1.701, -5.1219511, 1.701, -7.0121951, 1.701, 0.9146342, 0.0654231, -0.0280308, 1.701, -57.3170738, 1.701, -24.7560978, 1.701, 41.8292694, 0.0654231, -0.0112459, 1.701, 11.9512196, 1.701, -7.9878049, 1.701, -4.2073174, 0.0654231, 0.0688182, 1.701, 14.8780489, 1.701, -53.0487823, 1.701, 32.6219521, 0.0654231, 0.0058747, 1.701, -6.1585369, 1.701, 10.1829271, 1.701, -65.4268341, 0.0654231, -0.0075532, 1.701, -36.0975609, 1.701, -29.0853672, 1.701, -20.3658543, 0.0654231, -0.0243381, 1.701, -5.4878049, 1.701, -0.1829268, 1.701, -7.5, , , , , , , , , , , , , , , , , , , , , , 
0.0659423, -0.0287022, 1.7145, -8.4146347, 1.7145, -7.3170733, 1.7145, -7.7439027, 0.0659423, 0.0580758, 1.7145, -4.4512196, 1.7145, -8.2317076, 1.7145, 1.3414634, 0.0659423, -0.0270237, 1.7145, -69.5731735, 1.7145, -28.5365868, 1.7145, 46.8292694, 0.0659423, -0.0105745, 1.7145, 12.9878054, 1.7145, -9.4512196, 1.7145, -4.2682929, 0.0659423, 0.0676432, 1.7145, 12.560976, 1.7145, -57.0121956, 1.7145, 35.1829262, 0.0659423, 0.0028534, 1.7145, 1.8292683, 1.7145, 17.7439022, 1.7145, -78.5975647, 0.0659423, -0.0077211, 1.7145, -48.1707344, 1.7145, -39.0853653, 1.7145, -24.2682934, 0.0659423, -0.0283665, 1.7145, -5.2439027, 1.7145, 0.1829268, 1.7145, -7.2560978, , , , , , , , , , , , , , , , , , , , , , 
0.0664615, -0.0337377, 1.728, -10.4878054, 1.728, -13.2926836, 1.728, -7.1341467, 0.0664615, 0.0516976, 1.728, -2.8658538, 1.728, -11.8292685, 1.728, 2.7439024, 0.0664615, -0.0270237, 1.728, -77.1341476, 1.728, -30.1829281, 1.728, 49.6951218, 0.0664615, -0.0102388, 1.728, 13.1707315, 1.728, -11.4634151, 1.728, -4.0243902, 0.0664615, 0.066804, 1.728, 14.4512196, 1.728, -49.5121956, 1.728, 37.0731697, 0.0664615, -0.0132601, 1.728, 9.9390249, 1.728, 19.5121956, 1.728, -92.8048782, 0.0664615, -0.0085603, 1.728, -61.2195129, 1.728, -40.1219521, 1.728, -28.4146347, 0.0664615, -0.0270237, 1.728, -5.7926831, 1.728, -1.7073171, 1.728, -8.2926826, , , , , , , , , , , , , , , , , , , , , , 
0.0669808, -0.0391089, 1.7415, -15.7317076, 1.7415, -21.7682934, 1.7415, -10, 0.0669808, 0.0488441, 1.7415, -1.7682927, 1.7415, -15.7926836, 1.7415, 3.9024391, 0.0669808, -0.0280308, 1.7415, -92.68293, 1.7415, -33.9634171, 1.7415, 53.2317085, 0.0669808, -0.0139315, 1.7415, 11.7073174, 1.7415, -11.8902445, 1.7415, -3.6585367, 0.0669808, 0.0656291, 1.7415, 26.8292694, 1.7415, -28.9024391, 1.7415, 38.5365868, 0.0669808, -0.0218204, 1.7415, 19.8780499, 1.7415, 9.5731707, 1.7415, -106.7073212, 0.0669808, -0.008896, 1.7415, -68.0487823, 1.7415, -34.8170738, 1.7415, -29.3902454, 0.0669808, -0.0226596, 1.7415, -6.0365853, 1.7415, -3.1097562, 1.7415, -9.9390249, , , , , , , , , , , , , , , , , , , , , , 
0.0675, 0, 1.755, -21.8292694, 1.755, -27.2560978, 1.755, -14.9390249, 0.0675, 0.0535439, 1.755, 1.1585366, 1.755, -26.8292694, 1.755, 7.8048782, 0.0675, -0.0283665, 1.755, -111.646347, 1.755, -38.1707344, 1.755, 50.9756126, 0.0675, -0.018967, 1.755, 10.060976, 1.755, -7.6219516, 1.755, -3.8414636, 0.0675, 0.0654612, 1.755, 28.841465, 1.755, -26.5243912, 1.755, 37.8658562, 0.0675, -0.0196384, 1.755, 33.7804871, 1.755, -10.7317076, 1.755, -117.0731735, 0.0675, -0.008896, 1.755, -67.6219559, 1.755, -14.3902445, 1.755, -21.5243912, 0.0675, -0.0179599, 1.755, -6.280488, 1.755, 2.3170731, 1.755, -11.7682934, , , , , , , , , , , , , , , , , , , , , , 
0.0680192, 0, 1.7685, -28.0487804, 1.7685, -37.3780479, 1.7685, -19.2682934, 0.0680192, 0.0614328, 1.7685, 4.6341462, 1.7685, -36.6463432, 1.7685, 11.8902445, 0.0680192, -0.0273594, 1.7685, -136.2804871, 1.7685, -48.0487823, 1.7685, 40.9146347, 0.0680192, -0.0216526, 1.7685, 7.0731707, 1.7685, -2.9268293, 1.7685, -4.4512196, 0.0680192, 0.0656291, 1.7685, 35.1829262, 1.7685, -36.5853653, 1.7685, 39.8780479, 0.0680192, -0.0253452, 1.7685, 54.1463432, 1.7685, -23.8414631, 1.7685, -120.3048782, 0.0680192, -0.008896, 1.7685, -71.6463394, 1.7685, 19.5731716, 1.7685, -10.6707315, 0.0680192, -0.0146029, 1.7685, -5.4268293, 1.7685, 9.0853662, 1.7685, -14.0243902, , , , , , , , , , , , , , , , , , , , , , 
0.0685385, 0, 1.782, -37.5, 1.782, -50.6707344, 1.782, -22.560976, 0.0685385, 0.0669718, 1.782, 10.7317076, 1.782, -44.5121956, 1.782, 13.780488, 0.0685385, -0.0260166, 1.782, -154.3292694, 1.782, -71.8902435, 1.782, 21.8292694, 0.0685385, -0.0213169, 1.782, 2.9268293, 1.782, 1.8902439, 1.782, -5.670732, 0.0685385, 0.0676432, 1.782, 55.1219521, 1.782, -29.2682934, 1.782, 42.4390259, 0.0685385, -0.0411231, 1.782, 78.3536606, 1.782, -31.4634151, 1.782, -111.4024429, 0.0685385, -0.0095674, 1.782, -74.5731735, 1.782, 40.9146347, 1.782, -8.1097565, 0.0685385, -0.0125887, 1.782, -2.8658538, 1.782, 12.9268293, 1.782, -16.5853653, , , , , , , , , , , , , , , , , , , , , , 
0.0690577, 0, 1.7955, -45.7926826, 1.7955, -57.3780518, 1.7955, -24.0243912, 0.0690577, 0.072343, 1.7955, 16.5243912, 1.7955, -53.6585388, 1.7955, 13.1707315, 0.0690577, -0.0229953, 1.7955, -152.1341553, 1.7955, -89.0243912, 1.7955, -5.670732, 0.0690577, -0.0196384, 1.7955, -0.3658537, 1.7955, 0.2439024, 1.7955, -7.6219516, 0.0690577, 0.0683146, 1.7955, 76.4634171, 1.7955, -16.2195129, 1.7955, 44.3902435, 0.0690577, -0.0726787, 1.7955, 89.8780518, 1.7955, -66.4634171, 1.7955, -81.5243912, 0.0690577, -0.0087282, 1.7955, -73.1707306, 1.7955, 41.2195129, 1.7955, -11.1585369, 0.0690577, -0.0124208, 1.7955, 0.5487805, 1.7955, 10.2439022, 1.7955, -19.2682934, , , , , , , , , , , , , , , , , , , , , , 
0.0695769, 0, 1.809, -53.2317085, 1.809, -59.0243912, 1.809, -24.0243912, 0.0695769, 0.0753643, 1.809, 22.6219521, 1.809, -66.9512177, 1.809, 10.6707315, 0.0695769, -0.0213169, 1.809, -151.4634247, 1.809, -45.1829262, 1.809, -41.7682953, 0.0695769, -0.017792, 1.809, -2.3780489, 1.809, -8.4146347, 1.809, -10.2439022, 0.0695769, 0.0683146, 1.809, 86.7073212, 1.809, 10.4878054, 1.809, 45.9146347, 0.0695769, -0.1042344, 1.809, 60.18293, 1.809, 2.5609756, 1.809, -17.6829281, 0.0695769, -0.0082246, 1.809, 0, 1.809, 0, 1.809, 0, 0.0695769, -0.01561, 1.809, 4.9390244, 1.809, 3.5975611, 1.809, -21.5853672, , , , , , , , , , , , , , , , , , , , , , 
0.0700962, 0, 1.8225, -62.1341476, 1.8225, -60.7926826, 1.8225, -23.2926826, 0.0700962, 0.0730144, 1.8225, 25.8536587, 1.8225, -72.1341476, 1.8225, 7.9878049, 0.0700962, -0.0216526, 1.8225, 28.0487804, 1.8225, -56.2195129, 1.8225, -65.9146347, 0.0700962, -0.0169528, 1.8225, -4.390244, 1.8225, -16.4634151, 1.8225, -13.1097565, 0.0700962, 0.068986, 1.8225, 79.4512177, 1.8225, 46.4024391, 1.8225, 44.3902435, 0.0700962, -0.1178302, 1.8225, -1.3414634, 1.8225, -33.2317085, 1.8225, 57.7439041, 0.0700962, -0.0092317, 1.8225, -65.9756088, 1.8225, 19.0853672, 1.8225, -19.3292694, 0.0700962, -0.0193027, 1.8225, 6.9512196, 1.8225, -2.3170731, 1.8225, -22.9878063, , , , , , , , , , , , , , , , , , , , , , 
0.0706154, 0, 1.836, -67.4390259, 1.836, -60.3048782, 1.836, -23.2926826, 0.0706154, 0.068986, 1.836, 0, 1.836, 0, 1.836, 0, 0.0706154, -0.0213169, 1.836, 276.3414612, 1.836, -0.9146342, 1.836, -102.9878082, 0.0706154, -0.0179599, 1.836, -6.2195125, 1.836, -20.5487804, 1.836, -15.4268293, 0.0706154, 0.0676432, 1.836, 48.4756126, 1.836, 79.4512177, 1.836, 38.4146347, 0.0706154, -0.1143053, 1.836, -72.0121994, 1.836, -65.4878082, 1.836, 125.4878082, 0.0706154, -0.0102388, 1.836, -47.9878044, 1.836, 54.8780518, 1.836, -17.6219521, 0.0706154, -0.0181277, 1.836, 9.9390249, 1.836, -7.5609756, 1.836, -25.5487804, , , , , , , , , , , , , , , , , , , , , , 
0.0711346, 0, 1.8495, -78.2926865, 1.8495, -52.8658562, 1.8495, -21.7682934, 0.0711346, 0.0666361, 1.8495, 42.3170738, 1.8495, -54.6341476, 1.8495, 0.7317073, 0.0711346, -0.0216526, 1.8495, 55.1219521, 1.8495, 112.7439041, 1.8495, -161.1585388, 0.0711346, -0.0182956, 1.8495, -10.6707315, 1.8495, -17.7439022, 1.8495, -18.1097565, 0.0711346, 0.0654612, 1.8495, 44.5731735, 1.8495, -8.9634151, 1.8495, 40.5487823, 0.0711346, -0.0998703, 1.8495, -52.5, 1.8495, 48.1097565, 1.8495, 140.7317047, 0.0711346, -0.0092317, 1.8495, -58.1707344, 1.8495, 33.5975609, 1.8495, -24.5731716, 0.0711346, -0.0142672, 1.8495, 12.9878054, 1.8495, -2.8658538, 1.8495, -28.3536587, , , , , , , , , , , , , , , , , , , , , , 
0.0716538, 0, 1.863, -92.8658524, 1.863, -45.0609779, 1.863, -19.7560978, 0.0716538, 0.0616007, 1.863, 48.2317085, 1.863, -55.9146347, 1.863, -7.1341467, 0.0716538, -0.0236667, 1.863, -288.0487976, 1.863, 183.3536682, 1.863, -27.6829281, 0.0716538, -0.0203098, 1.863, -17.6829281, 1.863, -4.3292685, 1.863, -22.1341476, 0.0716538, 0.0619364, 1.863, 62.2560997, 1.863, -35.8536606, 1.863, 51.8292694, 0.0716538, -0.0706645, 1.863, 143.6585388, 1.863, 263.6585388, 1.863, 20.7317085, 0.0716538, -0.0062104, 1.863, -72.0121994, 1.863, 33.7195129, 1.863, -27.6219521, 0.0716538, -0.0115816, 1.863, 17.439024, 1.863, 9.5731707, 1.863, -31.2195129, , , , , , , , , , , , , , , , , , , , , , 
0.0721731, 0, 1.8765, -99.6341476, 1.8765, -25.060976, 1.8765, -13.9024391, 0.0721731, 0.0548867, 1.8765, 56.7073174, 1.8765, -47.1341476, 1.8765, -17.0731716, 0.0721731, -0.0256809, 1.8765, -164.6951294, 1.8765, 282.012207, 1.8765, 93.4756088, 0.0721731, -0.0223239, 1.8765, -22.439024, 1.8765, 4.0853658, 1.8765, -24.8170738, 0.0721731, 0.0570687, 1.8765, 82.3780518, 1.8765, -4.4512196, 1.8765, 68.1707306, 0.0721731, -0.0223239, 1.8765, 135.36586, 1.8765, 164.2073212, 1.8765, -123.9634171, 0.0721731, -0.0058747, 1.8765, -79.5731735, 1.8765, 3.4756098, 1.8765, -28.4146347, 0.0721731, -0.0112459, 1.8765, 24.0853672, 1.8765, 28.5975609, 1.8765, -33.9024391, , , , , , , , , , , , , , , , , , , , , , 
0.0726923, 0, 1.89, -106.8902435, 1.89, -6.1585369, 1.89, -5.4268293, 0.0726923, 0.0495155, 1.89, 68.4146347, 1.89, -32.2560997, 1.89, -27.6219521, 0.0726923, -0.0280308, 1.89, -87.1341476, 1.89, 210.9146423, 1.89, 99.5731735, 0.0726923, -0.0236667, 1.89, -33.4146347, 1.89, 27.4390259, 1.89, -31.280489, 0.0726923, 0.0508583, 1.89, 88.5365906, 1.89, 36.341465, 1.89, 72.9878082, 0.0726923, 0.0313878, 1.89, 16.6463413, 1.89, 298.5975647, 1.89, -98.4756088, 0.0726923, -0.0070497, 1.89, -93.6585388, 1.89, 10.1219511, 1.89, -29.6341476, 0.0726923, -0.0117494, 1.89, 31.280489, 1.89, 49.3292694, 1.89, -36.4634171, , , , , , , , , , , , , , , , , , , , , , 
0.0732115, 0, 1.9035, -117.68293, 1.9035, 11.6463413, 1.9035, 5.7926831, 0.0732115, 0.0475013, 1.9035, 76.2804871, 1.9035, -22.3170738, 1.9035, -33.7804871, 0.0732115, -0.0313878, 1.9035, -138.3536682, 1.9035, 203.1097565, 1.9035, 13.780488, 0.0732115, -0.0256809, 1.9035, -44.8170738, 1.9035, 52.6829262, 1.9035, -37.0731697, 0.0732115, 0.0438087, 1.9035, 91.3414688, 1.9035, 59.6341476, 1.9035, 53.2317085, 0.0732115, 0.0676432, 1.9035, 55.4878044, 1.9035, 204.6951294, 1.9035, -71.3414688, 0.0732115, -0.0093996, 1.9035, -88.0487823, 1.9035, 18.9024391, 1.9035, -23.5975609, 0.0732115, -0.0119173, 1.9035, 37.5, 1.9035, 69.3902435, 1.9035, -39.2682953, , , , , , , , , , , , , , , , , , , , , , 
0.0737308, 0, 1.917, -124.4512253, 1.917, 23.9024391, 1.917, 23.6585369, 0.0737308, 0.0516976, 1.917, 97.5, 1.917, 0.1219512, 1.917, -47.0731735, 0.0737308, -0.0339055, 1.917, -125.4268341, 1.917, 99.0853653, 1.917, -35.9146347, 0.0737308, -0.0285344, 1.917, -52.3170738, 1.917, 74.7560959, 1.917, -37.9878044, 0.0737308, 0.0387732, 1.917, 96.3414688, 1.917, 64.8780518, 1.917, 30.3048782, 0.0737308, 0.0609293, 1.917, 81.2195129, 1.917, 16.2195129, 1.917, -43.2317085, 0.0737308, -0.0104067, 1.917, 0, 1.917, 0, 1.917, 0, 0.0737308, -0.0109102, 1.917, 38.7195129, 1.917, 86.646347, 1.917, -40.9756088, , , , , , , , , , , , , , , , , , , , , , 
0.07425, 0, 1.9305, -134.9390259, 1.9305, 30.4268303, 1.9305, 46.8292694, 0.07425, 0.0575723, 1.9305, 117.0121994, 1.9305, 13.2317076, 1.9305, -60.9756126, 0.07425, -0.0340734, 1.9305, -49.4512215, 1.9305, -111.7682953, 1.9305, -64.3292694, 0.07425, -0.0293736, 1.9305, -54.6341476, 1.9305, 80.8536606, 1.9305, -33.4756088, 0.07425, 0.033402, 1.9305, 92.1341476, 1.9305, 68.6585388, 1.9305, 11.4634151, 0.07425, 0.0433051, 1.9305, 32.8048782, 1.9305, -90.5487823, 1.9305, -26.0365868, 0.07425, -0.0109102, 1.9305, -64.1463394, 1.9305, 82.1951218, 1.9305, -29.2073174, 0.07425, -0.0082246, 1.9305, 38.4756088, 1.9305, 110.1219559, 1.9305, -39.3902435, , , , , , , , , , , , , , , , , , , , , , 
0.0747692, 0, 1.944, -140.7317047, 1.944, 36.4634171, 1.944, 76.5853653, 0.0747692, 0.0632792, 1.944, 129.6951294, 1.944, 22.9268303, 1.944, -74.1463394, 0.0747692, -0.0317235, 1.944, -43.3536606, 1.944, -157.8048859, 1.944, -39.4512215, 0.0747692, -0.0263523, 1.944, -53.841465, 1.944, 68.4146347, 1.944, -24.3902435, 0.0747692, 0.026688, 1.944, 62.68293, 1.944, 53.5975609, 1.944, 6.7682929, 0.0747692, 0.0622721, 1.944, 27.2560978, 1.944, -151.4634247, 1.944, -47.3170738, 0.0747692, -0.0109102, 1.944, -52.6829262, 1.944, 92.8048782, 1.944, -46.0975609, 0.0747692, -0.0085603, 1.944, 37.7439041, 1.944, 141.4024353, 1.944, -35.6097565, , , , , , , , , , , , , , , , , , , , , , 
0.0752885, 0, 1.9575, -145.36586, 1.9575, 44.9390259, 1.9575, 110.0609818, 0.0752885, 0.0703288, 1.9575, 126.4634171, 1.9575, 30.1829281, 1.9575, -83.8414688, 0.0752885, -0.0293736, 1.9575, -52.6219521, 1.9575, -160.4268341, 1.9575, -5.1829271, 0.0752885, -0.0250095, 1.9575, -46.7682953, 1.9575, 44.4512215, 1.9575, -11.5243902, 0.0752885, 0.0169528, 1.9575, 23.9634151, 1.9575, 27.6219521, 1.9575, 28.3536587, 0.0752885, 0.0844282, 1.9575, 26.280489, 1.9575, -158.6585388, 1.9575, -65, 0.0752885, -0.0102388, 1.9575, -46.7682953, 1.9575, 88.5365906, 1.9575, -46.2195129, 0.0752885, -0.0097353, 1.9575, 27.1951218, 1.9575, 167.9878082, 1.9575, -28.4146347, , , , , , , , , , , , , , , , , , , , , , 
0.0758077, 0, 1.971, -162.9878082, 1.971, 58.2926826, 1.971, 130.9146423, 0.0758077, 0.0770428, 1.971, 109.4512253, 1.971, 38.5365868, 1.971, -86.2804871, 0.0758077, -0.027863, 1.971, -61.2195129, 1.971, -128.9634247, 1.971, 23.4756107, 0.0758077, -0.0229953, 1.971, -30.3048782, 1.971, 19.5731716, 1.971, 3.9634147, 0.0758077, 0.0048676, 1.971, -9.6951218, 1.971, 4.0243902, 1.971, 60.4268303, 0.0758077, 0.0803998, 1.971, 16.2195129, 1.971, -91.5243912, 1.971, -71.7073212, 0.0758077, -0.0109102, 1.971, -43.2317085, 1.971, 53.5975609, 1.971, -36.5853653, 0.0758077, -0.0095674, 1.971, 19.2073174, 1.971, 177.8048859, 1.971, -22.6829281, , , , , , , , , , , , , , , , , , , , , , 
0.0763269, 0, 1.9845, -161.5243988, 1.9845, 69.1463394, 1.9845, 127.9268341, 0.0763269, 0.0782177, 1.9845, 91.8902435, 1.9845, 47.3780518, 1.9845, -77.0731735, 0.0763269, -0.0273594, 1.9845, -69.4512177, 1.9845, -52.7439041, 1.9845, 33.4146347, 0.0763269, -0.0186313, 1.9845, -8.841464, 1.9845, 29.5731716, 1.9845, 17.9878044, 0.0763269, -0.0052033, 1.9845, -21.8292694, 1.9845, -3.8414636, 1.9845, 71.2804871, 0.0763269, 0.0802319, 1.9845, 19.0243912, 1.9845, 22.6219521, 1.9845, -64.1463394, 0.0763269, -0.0109102, 1.9845, -40.3658562, 1.9845, 7.9268293, 1.9845, -24.7560978, 0.0763269, -0.0082246, 1.9845, -2.9268293, 1.9845, 192.1951294, 1.9845, -7.1951222, , , , , , , , , , , , , , , , , , , , , , 
0.0768462, 0, 1.998, -127.5609818, 1.998, 98.9024429, 1.998, 102.0121994, 0.0768462, 0.0763714, 1.998, 79.8780518, 1.998, 60.4268303, 1.998, -62.2560997, 0.0768462, -0.0256809, 1.998, -76.7073212, 1.998, 66.4634171, 1.998, 7.0731707, 0.0768462, -0.01561, 1.998, 18.4756107, 1.998, 47.3780518, 1.998, 26.2195129, 0.0768462, -0.0139315, 1.998, -20.060976, 1.998, -24.8780499, 1.998, 65.7926865, 0.0768462, 0.0904707, 1.998, 29.4512196, 1.998, 77.4390259, 1.998, -53.1707344, 0.0768462, -0.0095674, 1.998, -38.7804871, 1.998, -30, 1.998, -14.6341467, 0.0768462, -0.0065461, 1.998, -36.8902435, 1.998, 173.1097565, 1.998, 7.1341467, , , , , , , , , , , , , , , , , , , , , , 
0.0773654, 0, 2.0115, -85.2439041, 2.0115, 123.7804871, 2.0115, 60.3658562, 0.0773654, 0.0741894, 2.0115, 0, 2.0115, 0, 2.0115, 0, 0.0773654, -0.0231632, 2.0115, -76.8292694, 2.0115, 87.8048782, 2.0115, -26.4024391, 0.0773654, -0.0179599, 2.0115, 29.8780499, 2.0115, 41.8292694, 2.0115, 26.7682934, 0.0773654, -0.0229953, 2.0115, 14.6341467, 2.0115, -49.7560997, 2.0115, 25.1829281, 0.0773654, 0.0820783, 2.0115, 56.7682953, 2.0115, 132.5, 2.0115, -28.3536587, 0.0773654, -0.0095674, 2.0115, -39.8780479, 2.0115, -48.841465, 2.0115, -2.8658538, 0.0773654, -0.0065461, 2.0115, -58.7195129, 2.0115, 105.9756088, 2.0115, 13.7195129, , , , , , , , , , , , , , , , , , , , , , 
0.0778846, 0, 2.025, -35.1219521, 2.025, 134.0853729, 2.025, 24.5731716, 0.0778846, 0.0757, 2.025, 66.5853653, 2.025, 101.0975647, 2.025, -32.0121956, 0.0778846, -0.0234989, 2.025, -62.0121956, 2.025, 39.0243912, 2.025, -36.8902435, 0.0778846, -0.0223239, 2.025, 31.0365868, 2.025, 55.4878044, 2.025, 24.3292694, 0.0778846, -0.0290379, 2.025, 63.4146347, 2.025, -58.3536606, 2.025, -15.060976, 0.0778846, 0.0706645, 2.025, 61.0975609, 2.025, 89.0853653, 2.025, -14.2073174, 0.0778846, -0.0099031, 2.025, -37.8658562, 2.025, -55.6097565, 2.025, 7.9878049, 0.0778846, -0.0075532, 2.025, -51.5853653, 2.025, 22.7439022, 2.025, 13.9634151, , , , , , , , , , , , , , , , , , , , , , 
0.0784038, 0, 2.0385, -0.7317073, 2.0385, 128.4146423, 2.0385, 3.9024391, 0.0784038, 0.0787213, 2.0385, 56.5853653, 2.0385, 107.8048782, 2.0385, -22.9268303, 0.0784038, -0.0273594, 2.0385, -55, 2.0385, -6.0365853, 2.0385, -22.2560978, 0.0784038, -0.0251774, 2.0385, 37.4390259, 2.0385, 60.7317085, 2.0385, 28.1707325, 0.0784038, -0.0370947, 2.0385, 97.9878082, 2.0385, -51.9512215, 2.0385, -17.0121956, 0.0784038, 0.0810712, 2.0385, 48.6585388, 2.0385, 16.9512196, 2.0385, -20.1829281, 0.0784038, -0.0102388, 2.0385, -33.841465, 2.0385, -56.4024391, 2.0385, 16.8292694, 0.0784038, -0.0095674, 2.0385, -48.7804871, 2.0385, -35.3658562, 2.0385, 13.1707315, , , , , , , , , , , , , , , , , , , , , , 
0.0789231, 0, 2.052, 14.1463413, 2.052, 107.0121994, 2.052, -3.8414636, 0.0789231, 0.0822461, 2.052, 0, 2.052, 0, 2.052, 0, 0.0789231, -0.0305486, 2.052, -48.4146347, 2.052, -27.8048782, 2.052, -14.5121956, 0.0789231, -0.0273594, 2.052, 44.3292694, 2.052, 52.9878044, 2.052, 33.9024391, 0.0789231, -0.0464942, 2.052, 80.4878082, 2.052, -50.5487823, 2.052, 4.6341462, 0.0789231, 0.0830854, 2.052, 38.1707344, 2.052, -16.9512196, 2.052, -27.9878063, 0.0789231, -0.0112459, 2.052, -33.1707306, 2.052, -57.1951218, 2.052, 18.8414631, 0.0789231, -0.0109102, 2.052, -65.4268341, 2.052, -82.7439041, 2.052, 11.0975609, , , , , , , , , , , , , , , , , , , , , , 
0.0794423, 0, 2.0655, 13.9634151, 2.0655, 72.3780518, 2.0655, -5.5487804, 0.0794423, 0.0830854, 2.0655, 26.280489, 2.0655, 69.9390259, 2.0655, -19.0243912, 0.0794423, -0.0317235, 2.0655, -43.5365868, 2.0655, -39.8170738, 2.0655, -20, 0.0794423, -0.027863, 2.0655, 64.2682953, 2.0655, 40.6097565, 2.0655, 52.9878044, 0.0794423, -0.0528725, 2.0655, 45.5487823, 2.0655, -45.9146347, 2.0655, 13.7195129, 0.0794423, 0.0495155, 2.0655, 37.1951218, 2.0655, -25.060976, 2.0655, -23.8414631, 0.0794423, -0.012253, 2.0655, -33.1097565, 2.0655, -47.6219521, 2.0655, 16.8292694, 0.0794423, -0.011078, 2.0655, -106.3414688, 2.0655, -107.1951218, 2.0655, 8.780488, , , , , , , , , , , , , , , , , , , , , , 
0.0799615, 0, 2.079, 13.6585369, 2.079, 38.4756088, 2.079, -7.0731707, 0.0799615, 0.0847639, 2.079, 0, 2.079, 0, 2.079, 0, 0.0799615, -0.0317235, 2.079, -40.9146347, 2.079, -42.5609779, 2.079, -22.1951218, 0.0799615, -0.0297093, 2.079, 85.3658524, 2.079, 40.9756088, 2.079, 77.68293, 0.0799615, -0.0589151, 2.079, 28.5975609, 2.079, -28.4756107, 2.079, 3.7195122, 0.0799615, 0.0048676, 2.079, 38.4146347, 2.079, -31.1585369, 2.079, -19.0243912, 0.0799615, -0.0112459, 2.079, -32.6219521, 2.079, -21.9512196, 2.079, 14.0853662, 0.0799615, -0.0115816, 2.079, -147.2561035, 2.079, -60.7926826, 2.079, 18.3536587, , , , , , , , , , , , , , , , , , , , , , 
0.0804808, 0, 2.0925, 17.6219521, 2.0925, 12.6219511, 2.0925, -11.0975609, 0.0804808, 0.0891279, 2.0925, -1.2804878, 2.0925, 13.5975609, 2.0925, -18.1707325, 0.0804808, -0.0293736, 2.0925, -36.6463432, 2.0925, -42.5, 2.0925, -17.8658543, 0.0804808, -0.0323949, 2.0925, 103.2317123, 2.0925, 50.4268303, 2.0925, 95.8536606, 0.0804808, -0.0649577, 2.0925, 10.7926836, 2.0925, -0.4878049, 2.0925, -9.0853662, 0.0804808, -0.014435, 2.0925, 34.6341476, 2.0925, -33.841465, 2.0925, -17.7439022, 0.0804808, -0.0099031, 2.0925, -28.4756107, 2.0925, 2.7439024, 2.0925, 11.7073174, 0.0804808, -0.0112459, 2.0925, -157.2561035, 2.0925, 9.1463413, 2.0925, 46.4634171, , , , , , , , , , , , , , , , , , , , , , 
0.081, -0.082414, 2.106, 14.6951227, 2.106, -9.3292685, 2.106, -15.7317076, 0.081, 0.0965133, 2.106, -21.4634151, 2.106, -24.3902435, 2.106, -12.2560978, 0.081, -0.0270237, 2.106, -32.5, 2.106, -44.0853653, 2.106, -16.4024391, 0.081, -0.0327306, 2.106, 118.4756088, 2.106, 62.0731735, 2.106, 101.3414688, 0.081, -0.0720073, 2.106, -3.5365853, 2.106, 24.2682934, 2.106, -15.1829271, 0.081, -0.0149386, 2.106, 30.9756107, 2.106, -31.0975609, 2.106, -15.4268293, 0.081, -0.0099031, 2.106, -22.6219521, 2.106, 13.2317076, 2.106, 7.9268293, 0.081, -0.0062104, 2.106, -155.6707306, 2.106, 56.1585388, 2.106, 70.0609741, , , , , , , , , , , , , , , , , , , , , , 
0.0815192, -0.0736858, 2.1195, 5.609756, 2.1195, -27.8048782, 2.1195, -16.8292694, 0.0815192, 0.1045701, 2.1195, -42.3170738, 2.1195, -50.3658562, 2.1195, -3.1707318, 0.0815192, -0.0260166, 2.1195, -31.4634151, 2.1195, -45.8536606, 2.1195, -17.0731716, 0.0815192, -0.0293736, 2.1195, 133.4146423, 2.1195, 57.8658562, 2.1195, 97.0121994, 0.0815192, -0.0809033, 2.1195, -6.5243902, 2.1195, 39.8170738, 2.1195, -17.0121956, 0.0815192, -0.0186313, 2.1195, 30.9756107, 2.1195, -32.5, 2.1195, -12.9268293, 0.0815192, -0.0097353, 2.1195, -17.8658543, 2.1195, 13.3536587, 2.1195, 4.8170733, 0.0815192, 0.0015106, 2.1195, -152.6219482, 2.1195, 62.3170738, 2.1195, 78.9024429, , , , , , , , , , , , , , , , , , , , , , 
0.0820385, -0.0659648, 2.133, 3.9634147, 2.133, -38.6585388, 2.133, -12.3170738, 0.0820385, 0.109102, 2.133, -59.1463432, 2.133, -59.5731735, 2.133, 4.5731707, 0.0820385, -0.0246738, 2.133, -29.7560978, 2.133, -50.9146347, 2.133, -18.1707325, 0.0820385, -0.0260166, 2.133, 146.0975647, 2.133, 35.7926826, 2.133, 91.2804871, 0.0820385, -0.0881209, 2.133, -4.1463413, 2.133, 43.4756126, 2.133, -17.6829281, 0.0820385, -0.0320592, 2.133, 30.1219521, 2.133, -39.3292694, 2.133, -11.5853662, 0.0820385, -0.0095674, 2.133, -15.9146347, 2.133, 12.1951218, 2.133, 3.1707318, 0.0820385, 0.0072175, 2.133, -144.3902435, 2.133, 39.1463432, 2.133, 91.3414688, , , , , , , , , , , , , , , , , , , , , , 
0.0825577, -0.0605936, 2.1465, 8.3536587, 2.1465, -41.2195129, 2.1465, -8.4146347, 0.0825577, 0.1072557, 2.1465, -68.2926865, 2.1465, -57.3170738, 2.1465, 7.0731707, 0.0825577, -0.0243381, 2.1465, -26.4634151, 2.1465, -54.5731735, 2.1465, -17.1341476, 0.0825577, -0.0243381, 2.1465, 151.8902435, 2.1465, 3.4756098, 2.1465, 88.0487823, 0.0825577, -0.0941634, 2.1465, 2.8658538, 2.1465, 43.4756126, 2.1465, -18.9634151, 0.0825577, -0.0555581, 2.1465, 28.7195129, 2.1465, -40.2439041, 2.1465, -10.8536587, 0.0825577, -0.0097353, 2.1465, -15.3658543, 2.1465, 15, 2.1465, 4.1463413, 0.0825577, 0.0085603, 2.1465, -139.4512177, 2.1465, -6.4024391, 2.1465, 94.2073212, , , , , , , , , , , , , , , , , , , , , , 
0.0830769, -0.0575723, 2.16, 24.8780499, 2.16, -45.8536606, 2.16, 0.7926829, 0.0830769, 0.0955062, 2.16, -68.6585388, 2.16, -51.341465, 2.16, 2.804878, 0.0830769, -0.0236667, 2.16, -23.1097565, 2.16, -51.0365868, 2.16, -15.9146347, 0.0830769, -0.0250095, 2.16, 154.0853729, 2.16, -26.3414631, 2.16, 87.5, 0.0830769, -0.100206, 2.16, 5.5487804, 2.16, 36.7073174, 2.16, -19.8170738, 0.0830769, -0.0679789, 2.16, 25.7317085, 2.16, -37.0121956, 2.16, -8.9634151, 0.0830769, -0.0099031, 2.16, -13.841464, 2.16, 21.6463413, 2.16, 8.4146347, 0.0830769, 0.0087282, 2.16, -141.2804871, 2.16, -52.1341476, 2.16, 86.2804871, , , , , , , , , , , , , , , , , , , , , , 
0.0835962, -0.0538796, 2.1735, 43.6585388, 2.1735, -59.9390259, 2.1735, 10.3658543, 0.0835962, 0.0750286, 2.1735, -63.5975609, 2.1735, -48.7804871, 2.1735, -7.8658538, 0.0835962, -0.0246738, 2.1735, -21.4024391, 2.1735, -44.8170738, 2.1735, -15.8536587, 0.0835962, -0.026688, 2.1735, 155.7926941, 2.1735, -57.0731735, 2.1735, 87.5, 0.0835962, -0.1042344, 2.1735, 3.6585367, 2.1735, 24.8780499, 2.1735, -19.1463413, 0.0835962, -0.0683146, 2.1735, 24.0243912, 2.1735, -30.1829281, 2.1735, -6.8292685, 0.0835962, -0.0095674, 2.1735, -13.3536587, 2.1735, 25.9756107, 2.1735, 13.780488, 0.0835962, 0.0109102, 2.1735, -142.0121918, 2.1735, -100.7926865, 2.1735, 74.3292694, , , , , , , , , , , , , , , , , , , , , , 
0.0841154, -0.0458228, 2.187, 57.5, 2.187, -89.0853653, 2.187, 21.0975609, 0.0841154, 0.056733, 2.187, -58.6585388, 2.187, -52.1951218, 2.187, -21.2195129, 0.0841154, -0.0256809, 2.187, -20.4878044, 2.187, -41.2804871, 2.187, -15.9146347, 0.0841154, -0.0290379, 2.187, 156.646347, 2.187, -87.8048782, 2.187, 85, 0.0841154, -0.10692, 2.187, 2.9878049, 2.187, 11.6463413, 2.187, -17.439024, 0.0841154, -0.0867781, 2.187, 23.0487804, 2.187, -26.5853672, 2.187, -5.1829271, 0.0841154, -0.0095674, 2.187, -15.060976, 2.187, 22.1951218, 2.187, 18.5975609, 0.0841154, 0.0172885, 2.187, -133.8414612, 2.187, -146.8902435, 2.187, 65.7926865, , , , , , , , , , , , , , , , , , , , , , 
0.0846346, -0.0360876, 2.2005, 64.2073212, 2.2005, -125.9146347, 2.2005, 33.1097565, 0.0846346, 0.0441444, 2.2005, -56.7682953, 2.2005, -61.6463432, 2.2005, -32.7439041, 0.0846346, -0.0275273, 2.2005, -19.5121956, 2.2005, -37.2560997, 2.2005, -15.060976, 0.0846346, -0.0313878, 2.2005, 156.4024353, 2.2005, -120.1219559, 2.2005, 79.3292694, 0.0846346, -0.1116197, 2.2005, 6.0975609, 2.2005, 0.2439024, 2.2005, -15.4878054, 0.0846346, -0.1164874, 2.2005, 21.1585369, 2.2005, -23.0487804, 2.2005, -3.4756098, 0.0846346, -0.0099031, 2.2005, -17.6219521, 2.2005, 10.7317076, 2.2005, 21.7682934, 0.0846346, 0.0270237, 2.2005, -120.2439041, 2.2005, -176.1585388, 2.2005, 62.68293, , , , , , , , , , , , , , , , , , , , , , 
0.0851538, -0.0265202, 2.214, 64.4512177, 2.214, -151.9512177, 2.214, 43.9024391, 0.0851538, 0.0318914, 2.214, -59.3902435, 2.214, -72.8658524, 2.214, -39.8780479, 0.0851538, -0.0273594, 2.214, -17.9878044, 2.214, -30.4268303, 2.214, -14.3902445, 0.0851538, -0.0297093, 2.214, 156.0975647, 2.214, -141.4634247, 2.214, 72.0121994, 0.0851538, -0.1173266, 2.214, 12.2560978, 2.214, -8.780488, 2.214, -13.9024391, 0.0851538, -0.0995346, 2.214, 19.1463413, 2.214, -17.8048782, 2.214, -1.2195122, 0.0851538, -0.0095674, 2.214, -21.5853672, 2.214, -5.4878049, 2.214, 22.8048782, 0.0851538, 0.0347448, 2.214, -109.6951218, 2.214, -188.7195129, 2.214, 62.2560997, , , , , , , , , , , , , , , , , , , , , , 
0.0856731, -0.018967, 2.2275, 63.1097565, 2.2275, -154.0853729, 2.2275, 51.0365868, 0.0856731, 0.0152743, 2.2275, -64.7560959, 2.2275, -79.6951218, 2.2275, -43.2926826, 0.0856731, -0.0270237, 2.2275, -15.7926836, 2.2275, -23.7195129, 2.2275, -14.4512196, 0.0856731, -0.0276951, 2.2275, 155.7317047, 2.2275, -143.6585388, 2.2275, 61.0365868, 0.0856731, -0.1203479, 2.2275, 17.8658543, 2.2275, -15.6707325, 2.2275, -14.1463413, 0.0856731, -0.0417945, 2.2275, 18.1707325, 2.2275, -9.0853662, 2.2275, 0.7926829, 0.0856731, -0.0112459, 2.2275, -23.7195129, 2.2275, -18.3536587, 2.2275, 23.8414631, 0.0856731, 0.0377661, 2.2275, -101.646347, 2.2275, -179.3902435, 2.2275, 64.5121994, , , , , , , , , , , , , , , , , , , , , , 
0.0861923, -0.0125887, 2.241, 66.1585388, 2.241, -135, 2.241, 53.1097565, 0.0861923, -0.0028534, 2.241, -66.9512177, 2.241, -78.4146347, 2.241, -44.2682953, 0.0861923, -0.0290379, 2.241, -15.5487804, 2.241, -10.9756098, 2.241, -14.7560978, 0.0861923, -0.0276951, 2.241, 153.7195129, 2.241, -139.8170776, 2.241, 53.5975609, 0.0861923, -0.1210193, 2.241, 20.4268303, 2.241, -22.560976, 2.241, -16.8292694, 0.0861923, -0.0048676, 2.241, 17.560976, 2.241, 3.7804878, 2.241, 2.8658538, 0.0861923, -0.012253, 2.241, -21.5243912, 2.241, -21.7682934, 2.241, 26.4634151, 0.0861923, 0.0374304, 2.241, -85.1219559, 2.241, -154.146347, 2.241, 73.0487823, , , , , , , , , , , , , , , , , , , , , , 
0.0867115, -0.005539, 2.2545, 71.9512177, 2.2545, -100.7926865, 2.2545, 51.4634171, 0.0867115, -0.0236667, 2.2545, -69.9390259, 2.2545, -68.4146347, 2.2545, -45.3658562, 0.0867115, -0.0317235, 2.2545, -15.4268293, 2.2545, 1.2195122, 2.2545, -15.4878054, 0.0867115, -0.0240024, 2.2545, 148.0487823, 2.2545, -117.0121994, 2.2545, 36.7073174, 0.0867115, -0.1230335, 2.2545, 20.6097565, 2.2545, -27.3170738, 2.2545, -19.7560978, 0.0867115, -0.0023499, 2.2545, 17.8658543, 2.2545, 13.1097565, 2.2545, 5.5487804, 0.0867115, -0.0105745, 2.2545, -17.9878044, 2.2545, -20.8536587, 2.2545, 28.1707325, 0.0867115, 0.0374304, 2.2545, -62.5609779, 2.2545, -134.2073212, 2.2545, 88.1097565, , , , , , , , , , , , , , , , , , , , , , 
0.0872308, 0.0038605, 2.268, 78.9024429, 2.268, -70.8536606, 2.268, 49.3902435, 0.0872308, -0.0471656, 2.268, -71.7682953, 2.268, -60.5487823, 2.268, -45.3658562, 0.0872308, -0.0323949, 2.268, -13.9024391, 2.268, 7.6219516, 2.268, -16.6463413, 0.0872308, -0.0142672, 2.268, 144.5121918, 2.268, -113.7804871, 2.268, 18.5365849, 0.0872308, -0.1277333, 2.268, 19.7560978, 2.268, -23.5975609, 2.268, -18.780489, 0.0872308, -0.0028534, 2.268, 18.0487804, 2.268, 18.7195129, 2.268, 8.1707315, 0.0872308, -0.0095674, 2.268, -17.3780499, 2.268, -20.3048782, 2.268, 27.7439022, 0.0872308, 0.0354162, 2.268, -49.7560997, 2.268, -91.7073212, 2.268, 102.8658524, , , , , , , , , , , , , , , , , , , , , , 
