Application:, Trigno Discover (2.0.1.3)
Date/Time:, 04-Nov-25 15:08:10
Collection Length (seconds):, 2.997
 Hamstrings right (85641), , , , , , , ,  Rectus Femoris right (85844), , , , , , , ,  Gastrocnemius left (85904), , , , , , , , TibilaisÂ Anterior right (85650), , , , , , , ,  Hamstrings left (85586), , , , , , , , TibilaisÂ Anterior left (85605), , , , , , , ,  Rectus Femoris left (85878), , , , , , , ,  Gastrocnemius right (85873)
sensor mode: 49, , , , , , , , sensor mode: 49, , , , , , , , sensor mode: 49, , , , , , , , sensor mode: 49, , , , , , , , sensor mode: 49, , , , , , , , sensor mode: 49, , , , , , , , sensor mode: 49, , , , , , , , sensor mode: 49
EMG 1 Time Series (s), EMG 1 (mV), GYRO X Time Series (s), GYRO X (deg/s), GYRO Y Time Series (s), GYRO Y (deg/s), GYRO Z Time Series (s), GYRO Z (deg/s), EMG 1 Time Series (s), EMG 1 (mV), GYRO X Time Series (s), GYRO X (deg/s), GYRO Y Time Series (s), GYRO Y (deg/s), GYRO Z Time Series (s), GYRO Z (deg/s), EMG 1 Time Series (s), EMG 1 (mV), GYRO X Time Series (s), GYRO X (deg/s), GYRO Y Time Series (s), GYRO Y (deg/s), GYRO Z Time Series (s), GYRO Z (deg/s), EMG 1 Time Series (s), EMG 1 (mV), GYRO X Time Series (s), GYRO X (deg/s), GYRO Y Time Series (s), GYRO Y (deg/s), GYRO Z Time Series (s), GYRO Z (deg/s), EMG 1 Time Series (s), EMG 1 (mV), GYRO X Time Series (s), GYRO X (deg/s), GYRO Y Time Series (s), GYRO Y (deg/s), GYRO Z Time Series (s), GYRO Z (deg/s), EMG 1 Time Series (s), EMG 1 (mV), GYRO X Time Series (s), GYRO X (deg/s), GYRO Y Time Series (s), GYRO Y (deg/s), GYRO Z Time Series (s), GYRO Z (deg/s), EMG 1 Time Series (s), EMG 1 (mV), GYRO X Time Series (s), GYRO X (deg/s), GYRO Y Time Series (s), GYRO Y (deg/s), GYRO Z Time Series (s), GYRO Z (deg/s), EMG 1 Time Series (s), EMG 1 (mV), GYRO X Time Series (s), GYRO X (deg/s), GYRO Y Time Series (s), GYRO Y (deg/s), GYRO Z Time Series (s), GYRO Z (deg/s)
, 1925.9259 Hz, , 74.0741 Hz, , 74.0741 Hz, , 74.0741 Hz, , 1925.9259 Hz, , 74.0741 Hz, , 74.0741 Hz, , 74.0741 Hz, , 1925.9259 Hz, , 74.0741 Hz, , 74.0741 Hz, , 74.0741 Hz, , 1925.9259 Hz, , 74.0741 Hz, , 74.0741 Hz, , 74.0741 Hz, , 1925.9259 Hz, , 74.0741 Hz, , 74.0741 Hz, , 74.0741 Hz, , 1925.9259 Hz, , 74.0741 Hz, , 74.0741 Hz, , 74.0741 Hz, , 1925.9259 Hz, , 74.0741 Hz, , 74.0741 Hz, , 74.0741 Hz, , 1925.9259 Hz, , 74.0741 Hz, , 74.0741 Hz, , 74.0741 Hz
, 0.0005192307692307692 s, , 0.0135 s, , 0.0135 s, , 0.0135 s, , 0.0005192307692307692 s, , 0.0135 s, , 0.0135 s, , 0.0135 s, , 0.0005192307692307692 s, , 0.0135 s, , 0.0135 s, , 0.0135 s, , 0.0005192307692307692 s, , 0.0135 s, , 0.0135 s, , 0.0135 s, , 0.0005192307692307692 s, , 0.0135 s, , 0.0135 s, , 0.0135 s, , 0.0005192307692307692 s, , 0.0135 s, , 0.0135 s, , 0.0135 s, , 0.0005192307692307692 s, , 0.0135 s, , 0.0135 s, , 0.0135 s, , 0.0005192307692307692 s, , 0.0135 s, , 0.0135 s, , 0.0135 s, , Type, Name, Label, Time (s), , Pair, E1, E2, T1, T2, V1, V2, Sensor, Channel, Units, Delta T, RMS, PKPK, Peak Value, TPK, Integral
0, -0.0172885, 0, 7.9268293, 0, 11.4634151, 0, -9.6341467, 0, 0.0199741, 0, -14.7560978, 0, 0.0609756, 0, -0.2439024, 0, -0.0285344, 0, -10.7926836, 0, 0, 0, -0.9146342, 0, -0.0058747, 0, 18.0487804, 0, 2.5609756, 0, 2.6829269, 0, -0.0323949, 0, 21.280489, 0, 7.9268293, 0, 2.8658538, 0, -0.0149386, 0, 3.5975611, 0, 16.4634151, 0, 0.1219512, 0, -0.0085603, 0, -26.0365868, 0, 7.0731707, 0, 9.8170738, 0, 0.003357, 0, -13.841464, 0, 4.6341462, 0, -3.3536587, , , , , , , , , , , , , , , , , , , , , , 
0.0005192, -0.0149386, 0.0135, 10.1829271, 0.0135, 12.3780489, 0.0135, -7.8048782, 0.0005192, 0.0182956, 0.0135, -14.7560978, 0.0135, -0.9756098, 0.0135, -1.1585366, 0.0005192, -0.0303807, 0.0135, -10.3658543, 0.0135, 2.5609756, 0.0135, -0.9756098, 0.0005192, -0.0070497, 0.0135, 16.4634151, 0.0135, -1.1585366, 0.0135, 1.5243902, 0.0005192, -0.0298772, 0.0135, 22.0731716, 0.0135, 4.5121951, 0.0135, 1.8292683, 0.0005192, -0.0162814, 0.0135, 3.2317073, 0.0135, 17.8048782, 0.0135, 0.6097561, 0.0005192, -0.0075532, 0.0135, -25.1219521, 0.0135, 5.2439027, 0.0135, 8.2317076, 0.0005192, 0.0058747, 0.0135, -12.4390249, 0.0135, 1.8902439, 0.0135, -3.1707318, , , , , , , , , , , , , , , , , , , , , , 
0.0010385, -0.0135958, 0.027, 11.4024391, 0.027, 10.7317076, 0.027, -5.609756, 0.0010385, 0.0179599, 0.027, -13.3536587, 0.027, -1.9512196, 0.027, -1.1585366, 0.0010385, -0.0317235, 0.027, -9.2073174, 0.027, -2.5, 0.027, -0.9146342, 0.0010385, -0.0125887, 0.027, 15.4878054, 0.027, 0.0609756, 0.027, 0.0609756, 0.0010385, -0.0176242, 0.027, 20.6097565, 0.027, 1.2195122, 0.027, 0.9146342, 0.0010385, -0.0176242, 0.027, 2.8658538, 0.027, 13.2317076, 0.027, 0.7926829, 0.0010385, -0.0078889, 0.027, -25.8536587, 0.027, 2.3170731, 0.027, 5.3658538, 0.0010385, 0.0030213, 0.027, -11.219512, 0.027, 4.1463413, 0.027, -3.3536587, , , , , , , , , , , , , , , , , , , , , , 
0.0015577, -0.0142672, 0.0405, 10.5487804, 0.0405, 8.1707315, 0.0405, -3.1097562, 0.0015577, 0.0199741, 0.0405, -11.0365858, 0.0405, -2.0121951, 0.0405, -1.402439, 0.0015577, -0.0320592, 0.0405, -8.0487804, 0.0405, -7.8658538, 0.0405, -0.5487805, 0.0015577, -0.0139315, 0.0405, 14.8780489, 0.0405, 1.7073171, 0.0405, -0.9756098, 0.0015577, -0.0063783, 0.0405, 18.4756107, 0.0405, -1.097561, 0.0405, 0.3048781, 0.0015577, -0.0179599, 0.0405, 2.2560976, 0.0405, 7.1951222, 0.0405, 0.5487805, 0.0015577, -0.010071, 0.0405, -27.0731716, 0.0405, -0.9756098, 0.0405, 2.7439024, 0.0015577, -0.0011749, 0.0405, -10.3658543, 0.0405, 6.1585369, 0.0405, -3.4756098, , , , , , , , , , , , , , , , , , , , , , 
0.0020769, -0.0149386, 0.054, 9.2682924, 0.054, 8.6585369, 0.054, -2.0731707, 0.0020769, 0.0213169, 0.054, -10.1219511, 0.054, -1.5853659, 0.054, -1.5853659, 0.0020769, -0.03122, 0.054, -7.3780489, 0.054, -11.4634151, 0.054, 0.1829268, 0.0020769, -0.0124208, 0.054, 15.4268293, 0.054, 2.0731707, 0.054, -0.4878049, 0.0020769, -0.0028534, 0.054, 16.8902435, 0.054, -2.6219513, 0.054, -0.6097561, 0.0020769, -0.0171206, 0.054, 1.097561, 0.054, 4.9390244, 0.054, 0.5487805, 0.0020769, -0.0090639, 0.054, -26.9512196, 0.054, -3.3536587, 0.054, 1.402439, 0.0020769, 0.0003357, 0.054, 0, 0.054, 0, 0.054, 0, , , , , , , , , , , , , , , , , , , , , , 
0.0025962, -0.0162814, 0.0675, 7.1341467, 0.0675, 10.5487804, 0.0675, -2.6829269, 0.0025962, 0.0206455, 0.0675, -11.0365858, 0.0675, -1.402439, 0.0675, -1.4634147, 0.0025962, -0.0303807, 0.0675, -6.890244, 0.0675, -9.0243902, 0.0675, 1.7073171, 0.0025962, -0.0102388, 0.0675, 16.8292694, 0.0675, 4.4512196, 0.0675, -0.1219512, 0.0025962, -0.0041962, 0.0675, 15.5487804, 0.0675, -2.3780489, 0.0675, -1.7073171, 0.0025962, -0.01561, 0.0675, -0.4268293, 0.0675, 7.1951222, 0.0675, 1.4634147, 0.0025962, -0.0085603, 0.0675, -25.5487804, 0.0675, -3.8414636, 0.0675, 1.6463414, 0.0025962, 0.0045319, 0.0675, -11.8902445, 0.0675, 8.5975609, 0.0675, -3.2317073, , , , , , , , , , , , , , , , , , , , , , 
0.0031154, -0.0176242, 0.081, 7.3780489, 0.081, 14.1463413, 0.081, -3.4756098, 0.0031154, 0.0184634, 0.081, -12.6219511, 0.081, 1.9512196, 0.081, -1.2804878, 0.0031154, -0.0330663, 0.081, -3.6585367, 0.081, -6.0365853, 0.081, 4.2682929, 0.0031154, -0.0099031, 0.081, 18.7195129, 0.081, 8.3536587, 0.081, -0.2439024, 0.0031154, -0.0050355, 0.081, 12.1341467, 0.081, -0.3048781, 0.081, -2.6829269, 0.0031154, -0.0157778, 0.081, -2.0121951, 0.081, 9.2073174, 0.081, 2.6219513, 0.0031154, -0.0102388, 0.081, -24.3292694, 0.081, -0.8536586, 0.081, 3.7195122, 0.0031154, 0.0041962, 0.081, -12.560976, 0.081, 11.1585369, 0.081, -2.9878049, , , , , , , , , , , , , , , , , , , , , , 
0.0036346, -0.0196384, 0.0945, 10.5487804, 0.0945, 19.2682934, 0.0945, -3.9634147, 0.0036346, 0.0172885, 0.0945, -12.9878054, 0.0945, 4.0243902, 0.0945, -1.3414634, 0.0036346, -0.0347448, 0.0945, -1.2804878, 0.0945, -4.6341462, 0.0945, 6.2195125, 0.0036346, -0.0115816, 0.0945, 20.4268303, 0.0945, 12.7439032, 0.0945, 0.3658537, 0.0036346, -0.0038605, 0.0945, 6.890244, 0.0945, 4.3292685, 0.0945, -2.2560976, 0.0036346, -0.0174563, 0.0945, -7.0731707, 0.0945, 6.6463418, 0.0945, 6.5853658, 0.0036346, -0.012253, 0.0945, -22.3780499, 0.0945, 4.1463413, 0.0945, 5.7317076, 0.0036346, -0.0001678, 0.0945, -14.3292685, 0.0945, 14.9390249, 0.0945, -2.804878, , , , , , , , , , , , , , , , , , , , , , 
0.0041538, -0.023331, 0.108, 13.6585369, 0.108, 23.780489, 0.108, -3.6585367, 0.0041538, 0.0181277, 0.108, -14.6341467, 0.108, 9.8780489, 0.108, -1.5243902, 0.0041538, -0.0345769, 0.108, 2.8658538, 0.108, -1.8292683, 0.108, 11.5853662, 0.0041538, -0.0149386, 0.108, 21.4024391, 0.108, 13.9634151, 0.108, 0.7926829, 0.0041538, -0.0015106, 0.108, 1.097561, 0.108, 9.8780489, 0.108, -1.097561, 0.0041538, -0.0166171, 0.108, -12.560976, 0.108, -0.8536586, 0.108, 9.5731707, 0.0041538, -0.0139315, 0.108, -20.6707325, 0.108, 8.3536587, 0.108, 7.0121951, 0.0041538, -0.0028534, 0.108, -16.280489, 0.108, 16.8292694, 0.108, -2.6829269, , , , , , , , , , , , , , , , , , , , , , 
0.0046731, -0.0229953, 0.1215, 16.7073174, 0.1215, 27.7439022, 0.1215, -2.0731707, 0.0046731, 0.0172885, 0.1215, -17.9878044, 0.1215, 13.4146347, 0.1215, -3.2317073, 0.0046731, -0.0344091, 0.1215, 3.9024391, 0.1215, 2.5609756, 0.1215, 17.1951218, 0.0046731, -0.0152743, 0.1215, 20.9756107, 0.1215, 7.6219516, 0.1215, 0.1219512, 0.0046731, 0.0001678, 0.1215, -7.5609756, 0.1215, 15.6707325, 0.1215, -1.3414634, 0.0046731, -0.01561, 0.1215, -17.1341476, 0.1215, -0.3048781, 0.1215, 10.9756098, 0.0046731, -0.0149386, 0.1215, -19.2682934, 0.1215, 13.9024391, 0.1215, 6.0365853, 0.0046731, -0.0015106, 0.1215, -18.0487804, 0.1215, 15.5487804, 0.1215, -1.7682927, , , , , , , , , , , , , , , , , , , , , , 
0.0051923, -0.0229953, 0.135, 19.6951218, 0.135, 29.3292694, 0.135, 0.3658537, 0.0051923, 0.0159457, 0.135, -19.0243912, 0.135, 10.6097565, 0.135, -6.2195125, 0.0051923, -0.0330663, 0.135, 5.2439027, 0.135, 7.1341467, 0.135, 24.8170738, 0.0051923, -0.0135958, 0.135, 20.8536587, 0.135, 3.7195122, 0.135, -0.6707317, 0.0051923, -0.0008392, 0.135, -16.9512196, 0.135, 19.5121956, 0.135, -3.1707318, 0.0051923, -0.0159457, 0.135, -25.3658543, 0.135, 7.4390244, 0.135, 11.8292685, 0.0051923, -0.0124208, 0.135, -9.1463413, 0.135, 19.6341476, 0.135, 2.9878049, 0.0051923, 0.0005035, 0.135, -18.9634151, 0.135, 11.9512196, 0.135, 0.1219512, , , , , , , , , , , , , , , , , , , , , , 
0.0057115, -0.0297093, 0.1485, 21.6463413, 0.1485, 28.780489, 0.1485, 1.5243902, 0.0057115, 0.01561, 0.1485, -20.8536587, 0.1485, 7.7439027, 0.1485, -8.9634151, 0.0057115, -0.0330663, 0.1485, 7.3170733, 0.1485, 9.6341467, 0.1485, 33.6585388, 0.0057115, -0.0142672, 0.1485, 20.4878044, 0.1485, -2.5609756, 0.1485, -2.3170731, 0.0057115, -0.0025177, 0.1485, -21.7073174, 0.1485, 22.2560978, 0.1485, -4.4512196, 0.0057115, -0.0151064, 0.1485, -34.4512215, 0.1485, 8.9024391, 0.1485, 12.7439032, 0.0057115, -0.0115816, 0.1485, -1.2804878, 0.1485, 24.0243912, 0.1485, 1.3414634, 0.0057115, 0.0006714, 0.1485, -19.0853672, 0.1485, 11.0975609, 0.1485, 1.2195122, , , , , , , , , , , , , , , , , , , , , , 
0.0062308, -0.0360876, 0.162, 23.5365868, 0.162, 26.5243912, 0.162, 3.4146342, 0.0062308, 0.0172885, 0.162, -21.0365868, 0.162, 7.7439027, 0.162, -10.9756098, 0.0062308, -0.0323949, 0.162, 8.9024391, 0.162, 9.0243902, 0.162, 40.2439041, 0.0062308, -0.0151064, 0.162, 21.1585369, 0.162, 0.5487805, 0.162, -1.8902439, 0.0062308, -0.0041962, 0.162, -31.0975609, 0.162, 28.9024391, 0.162, -6.4024391, 0.0062308, -0.0142672, 0.162, -40.6097565, 0.162, 7.1341467, 0.162, 13.7195129, 0.0062308, -0.0129244, 0.162, 7.2560978, 0.162, 30.4268303, 0.162, 0.1829268, 0.0062308, -0.0010071, 0.162, -19.2073174, 0.162, 14.4512196, 0.162, 0.6097561, , , , , , , , , , , , , , , , , , , , , , 
0.00675, -0.0391089, 0.1755, 25.6097565, 0.1755, 27.4390259, 0.1755, 5.0609756, 0.00675, 0.0172885, 0.1755, -21.4024391, 0.1755, 12.5, 0.1755, -11.5243902, 0.00675, -0.0290379, 0.1755, 11.6463413, 0.1755, 8.5975609, 0.1755, 46.9512215, 0.00675, -0.01561, 0.1755, 23.3536587, 0.1755, 9.5731707, 0.1755, -0.7317073, 0.00675, -0.0062104, 0.1755, -42.1341476, 0.1755, 35.4878044, 0.1755, -6.5853658, 0.00675, -0.0157778, 0.1755, -48.7195129, 0.1755, 9.3902445, 0.1755, 14.8780489, 0.00675, -0.012253, 0.1755, 19.0243912, 0.1755, 38.2926826, 0.1755, -3.2317073, 0.00675, -0.0041962, 0.1755, -21.0365868, 0.1755, 23.6585369, 0.1755, 0.3048781, , , , , , , , , , , , , , , , , , , , , , 
0.0072692, -0.0397803, 0.189, 25.4878063, 0.189, 27.4390259, 0.189, 7.3780489, 0.0072692, 0.0166171, 0.189, -21.1585369, 0.189, 15.7926836, 0.189, -12.9268293, 0.0072692, -0.0243381, 0.189, 13.2926836, 0.189, 4.0243902, 0.189, 55.18293, 0.0072692, -0.0142672, 0.189, 24.8170738, 0.189, 22.560976, 0.189, -3.7195122, 0.0072692, -0.0085603, 0.189, -55.3048782, 0.189, 42.3780479, 0.189, -6.0975609, 0.0072692, -0.0176242, 0.189, -57.7439041, 0.189, 7.4390244, 0.189, 14.2682934, 0.0072692, -0.0109102, 0.189, 24.0853672, 0.189, 41.2804871, 0.189, -5.4878049, 0.0072692, -0.0062104, 0.189, 0, 0.189, 0, 0.189, 0, , , , , , , , , , , , , , , , , , , , , , 
0.0077885, -0.0414588, 0.2025, 24.1463413, 0.2025, 27.4390259, 0.2025, 10.1219511, 0.0077885, 0.0152743, 0.2025, -20, 0.2025, 16.5853653, 0.2025, -15.7317076, 0.0077885, -0.0221561, 0.2025, 10.8536587, 0.2025, -3.9024391, 0.2025, 62.9268303, 0.0077885, -0.0139315, 0.2025, 25.4878063, 0.2025, 32.3170738, 0.2025, -8.1097565, 0.0077885, -0.0085603, 0.2025, -68.6585388, 0.2025, 46.7682953, 0.2025, -7.8048782, 0.0077885, -0.018967, 0.2025, -64.1463394, 0.2025, -2.8658538, 0.2025, 10, 0.0077885, -0.0109102, 0.2025, 31.8902454, 0.2025, 44.4512215, 0.2025, -8.780488, 0.0077885, -0.0048676, 0.2025, 0, 0.2025, 0, 0.2025, 0, , , , , , , , , , , , , , , , , , , , , , 
0.0083077, -0.0433051, 0.216, 25.7317085, 0.216, 28.1707325, 0.216, 12.0731707, 0.0083077, 0.0149386, 0.216, -17.439024, 0.216, 12.1951218, 0.216, -16.4024391, 0.0083077, -0.0226596, 0.216, 8.2926826, 0.216, -14.3292685, 0.216, 69.8780518, 0.0083077, -0.0146029, 0.216, 26.5243912, 0.216, 27.1951218, 0.216, -4.0243902, 0.0083077, -0.0092317, 0.216, -77.68293, 0.216, 46.5243912, 0.216, -11.280488, 0.0083077, -0.0176242, 0.216, -71.4634171, 0.216, -17.1341476, 0.216, 4.8170733, 0.0083077, -0.0109102, 0.216, 40.8536606, 0.216, 49.6951218, 0.216, -5.9756098, 0.0083077, -0.0018463, 0.216, 0, 0.216, 0, 0.216, 0, , , , , , , , , , , , , , , , , , , , , , 
0.0088269, -0.0441444, 0.2295, 26.9512196, 0.2295, 30, 0.2295, 10.6707315, 0.0088269, 0.01561, 0.2295, -17.6219521, 0.2295, 11.4634151, 0.2295, -12.6219511, 0.0088269, -0.0236667, 0.2295, 8.0487804, 0.2295, -29.6341476, 0.2295, 75.3658524, 0.0088269, -0.0139315, 0.2295, 24.7560978, 0.2295, 8.1707315, 0.2295, 0.6097561, 0.0088269, -0.0112459, 0.2295, -80.18293, 0.2295, 44.4512215, 0.2295, -12.9268293, 0.0088269, -0.0151064, 0.2295, -74.8170776, 0.2295, -24.8780499, 0.2295, 2.8658538, 0.0088269, -0.0093996, 0.2295, 55.7317085, 0.2295, 58.9024391, 0.2295, 0.9146342, 0.0088269, 0.0011749, 0.2295, -19.8170738, 0.2295, 20.1219521, 0.2295, 1.2195122, , , , , , , , , , , , , , , , , , , , , , 
0.0093462, -0.0433051, 0.243, 23.2926826, 0.243, 30.9756107, 0.243, 6.7073174, 0.0093462, 0.0159457, 0.243, -15.5487804, 0.243, 12.6219511, 0.243, -8.2317076, 0.0093462, -0.0251774, 0.243, 6.4634147, 0.243, -51.1585388, 0.243, 75.6097565, 0.0093462, -0.012253, 0.243, 22.5, 0.243, -8.2317076, 0.243, 0.4878049, 0.0093462, -0.0117494, 0.243, -78.9024429, 0.243, 37.9878044, 0.243, -12.5, 0.0093462, -0.0149386, 0.243, -77.1341476, 0.243, -37.0121956, 0.243, -1.7073171, 0.0093462, -0.0085603, 0.243, 72.8658524, 0.243, 61.8292694, 0.243, 5.3658538, 0.0093462, 0.002182, 0.243, 0, 0.243, 0, 0.243, 0, , , , , , , , , , , , , , , , , , , , , , 
0.0098654, -0.0391089, 0.2565, 17.9878044, 0.2565, 27.8658543, 0.2565, 2.7439024, 0.0098654, 0.0172885, 0.2565, -13.7195129, 0.2565, 11.4024391, 0.2565, -7.0121951, 0.0098654, -0.0243381, 0.2565, 0.8536586, 0.2565, -65.18293, 0.2565, 69.3902435, 0.0098654, -0.0129244, 0.2565, 23.7195129, 0.2565, -2.6829269, 0.2565, -4.1463413, 0.0098654, -0.0082246, 0.2565, -78.8414688, 0.2565, 24.0853672, 0.2565, -13.0487804, 0.0098654, -0.0159457, 0.2565, -71.8902435, 0.2565, -42.0121956, 0.2565, -8.3536587, 0.0098654, -0.008896, 0.2565, 79.0853653, 0.2565, 55.2439041, 0.2565, 3.8414636, 0.0098654, 0.002182, 0.2565, 0, 0.2565, 0, 0.2565, 0, , , , , , , , , , , , , , , , , , , , , , 
0.0103846, -0.0313878, 0.27, 14.4512196, 0.27, 22.5, 0.27, 0.6707317, 0.0103846, 0.0176242, 0.27, -11.6463413, 0.27, 9.0853662, 0.27, -7.2560978, 0.0103846, -0.023331, 0.27, -13.0487804, 0.27, -59.1463432, 0.27, 60.7317085, 0.0103846, -0.0125887, 0.27, 27.8048782, 0.27, 18.9634151, 0.27, -8.4756098, 0.0103846, -0.0046998, 0.27, -79.3292694, 0.27, 7.1341467, 0.27, -16.8292694, 0.0103846, -0.01561, 0.27, -60.9756126, 0.27, -41.7682953, 0.27, -18.3536587, 0.0103846, -0.0095674, 0.27, 63.5975609, 0.27, 34.8170738, 0.27, -0.4268293, 0.0103846, 0.0025177, 0.27, -12.8658543, 0.27, 19.6341476, 0.27, 5.5487804, , , , , , , , , , , , , , , , , , , , , , 
0.0109038, -0.0246738, 0.2835, 13.5975609, 0.2835, 17.560976, 0.2835, 0.6097561, 0.0109038, 0.0176242, 0.2835, -11.9512196, 0.2835, 6.2195125, 0.2835, -8.1097565, 0.0109038, -0.0246738, 0.2835, -21.7682934, 0.2835, -52.1341476, 0.2835, 56.4634171, 0.0109038, -0.0135958, 0.2835, 29.8780499, 0.2835, 33.0487823, 0.2835, -11.9512196, 0.0109038, -0.0062104, 0.2835, -76.3414688, 0.2835, -11.280488, 0.2835, -25.1829281, 0.0109038, -0.0149386, 0.2835, -50, 0.2835, -32.1341476, 0.2835, -30.9756107, 0.0109038, -0.0085603, 0.2835, 39.0853653, 0.2835, 0.2439024, 0.2835, -4.0853658, 0.0109038, 0.0035248, 0.2835, -9.9390249, 0.2835, 37.0121956, 0.2835, 6.3414636, , , , , , , , , , , , , , , , , , , , , , 
0.0114231, -0.0243381, 0.297, 13.6585369, 0.297, 17.439024, 0.297, 1.1585366, 0.0114231, 0.0182956, 0.297, -13.5975609, 0.297, 6.9512196, 0.297, -8.4756098, 0.0114231, -0.0256809, 0.297, -39.0243912, 0.297, -35.5487823, 0.297, 47.3780518, 0.0114231, -0.0142672, 0.297, 27.0121956, 0.297, 23.0487804, 0.297, -12.2560978, 0.0114231, -0.0072175, 0.297, -68.5365906, 0.297, -27.5, 0.297, -33.9634171, 0.0114231, -0.0149386, 0.297, -40.1829262, 0.297, -8.1707315, 0.297, -43.9024391, 0.0114231, -0.0068818, 0.297, 24.3902435, 0.297, -30.3658543, 0.297, -6.280488, 0.0114231, 0.0038605, 0.297, 0, 0.297, 0, 0.297, 0, , , , , , , , , , , , , , , , , , , , , , 
0.0119423, -0.0283665, 0.3105, 13.2926836, 0.3105, 19.8170738, 0.3105, 2.8658538, 0.0119423, 0.0172885, 0.3105, -12.6829271, 0.3105, 4.6951222, 0.3105, -7.8658538, 0.0119423, -0.0260166, 0.3105, -55.6707344, 0.3105, -13.1707315, 0.3105, 38.1097565, 0.0119423, -0.0135958, 0.3105, 24.7560978, 0.3105, 14.0243902, 0.3105, -11.4024391, 0.0119423, -0.0062104, 0.3105, -63.5975609, 0.3105, -31.4024391, 0.3105, -36.5243912, 0.0119423, -0.0149386, 0.3105, -31.2195129, 0.3105, 15.3048782, 0.3105, -54.6951218, 0.0119423, -0.0068818, 0.3105, 25.5487804, 0.3105, -43.6585388, 0.3105, -4.8170733, 0.0119423, 0.0023499, 0.3105, -6.4634147, 0.3105, 13.7195129, 0.3105, 7.1951222, , , , , , , , , , , , , , , , , , , , , , 
0.0124615, -0.0297093, 0.324, 12.9878054, 0.324, 16.9512196, 0.324, 3.2317073, 0.0124615, 0.017792, 0.324, -12.3780489, 0.324, -1.8292683, 0.324, -7.9268293, 0.0124615, -0.0270237, 0.324, -70.5487823, 0.324, 15.9146347, 0.324, 31.2195129, 0.0124615, -0.012253, 0.324, 21.280489, 0.324, -1.5243902, 0.324, -10.7317076, 0.0124615, -0.0041962, 0.324, -53.4756126, 0.324, -32.0121956, 0.324, -36.4634171, 0.0124615, -0.0139315, 0.324, -20.8536587, 0.324, 30.2439022, 0.324, -61.8292694, 0.0124615, -0.0075532, 0.324, 33.1707306, 0.324, -46.6463432, 0.324, -2.5, 0.0124615, 0.0016785, 0.324, 0, 0.324, 0, 0.324, 0, , , , , , , , , , , , , , , , , , , , , , 
0.0129808, -0.0263523, 0.3375, 14.2073174, 0.3375, 12.6829271, 0.3375, 1.2195122, 0.0129808, 0.0193027, 0.3375, -11.6463413, 0.3375, -5.7926831, 0.3375, -9.3902445, 0.0129808, -0.0270237, 0.3375, -81.2195129, 0.3375, 25.4268303, 0.3375, 20.6097565, 0.0129808, -0.012253, 0.3375, 20.7317085, 0.3375, -12.0731707, 0.3375, -11.0365858, 0.0129808, -0.0031891, 0.3375, -44.5731735, 0.3375, -27.8048782, 0.3375, -32.1951218, 0.0129808, -0.0142672, 0.3375, -8.2317076, 0.3375, 37.9878044, 0.3375, -66.4634171, 0.0129808, -0.0075532, 0.3375, 39.0853653, 0.3375, -39.8170738, 0.3375, -0.2439024, 0.0129808, 0.0016785, 0.3375, -3.2926829, 0.3375, -5.9756098, 0.3375, 10, , , , , , , , , , , , , , , , , , , , , , 
0.0135, -0.0219883, 0.351, 14.2073174, 0.351, 2.9268293, 0.351, -1.2195122, 0.0135, 0.0206455, 0.351, -11.7073174, 0.351, -10.7317076, 0.351, -11.8292685, 0.0135, -0.0258488, 0.351, -83.7195129, 0.351, 12.6829271, 0.351, 2.804878, 0.0135, -0.01561, 0.351, 21.8292694, 0.351, -10.6707315, 0.351, -13.4756098, 0.0135, -0.0045319, 0.351, -38.4146347, 0.351, -18.3536587, 0.351, -27.9878063, 0.0135, -0.0162814, 0.351, 8.6585369, 0.351, 32.9268303, 0.351, -69.9390259, 0.0135, -0.0068818, 0.351, 41.6463432, 0.351, -28.0487804, 0.351, 1.8902439, 0.0135, 0.0005035, 0.351, -1.8902439, 0.351, -5.4268293, 0.351, 10.9146347, , , , , , , , , , , , , , , , , , , , , , 
0.0140192, -0.0196384, 0.3645, 14.7560978, 0.3645, -6.890244, 0.3645, -4.3292685, 0.0140192, 0.0218204, 0.3645, -12.3780489, 0.3645, -14.8170738, 0.3645, -13.3536587, 0.0140192, -0.0246738, 0.3645, 0, 0.3645, 0, 0.3645, 0, 0.0140192, -0.0191348, 0.3645, 23.3536587, 0.3645, -2.3170731, 0.3645, -15.5487804, 0.0140192, -0.0072175, 0.3645, -37.1341476, 0.3645, -4.9390244, 0.3645, -25.9756107, 0.0140192, -0.0176242, 0.3645, 28.1097565, 0.3645, 6.9512196, 0.3645, -73.2926865, 0.0140192, -0.0048676, 0.3645, 40.3048782, 0.3645, -17.9268303, 0.3645, 3.4756098, 0.0140192, -0.002182, 0.3645, 0.4878049, 0.3645, 3.4146342, 0.3645, 12.0731707, , , , , , , , , , , , , , , , , , , , , , 
0.0145385, -0.0179599, 0.378, 11.9512196, 0.378, -16.8292694, 0.378, -7.3170733, 0.0145385, 0.0209812, 0.378, -15.9756098, 0.378, -20.3048782, 0.378, -14.5121956, 0.0145385, -0.0229953, 0.378, -79.8170776, 0.378, -48.2926826, 0.378, -33.3536606, 0.0145385, -0.0186313, 0.378, 23.5365868, 0.378, 1.2195122, 0.378, -14.2073174, 0.0145385, -0.0112459, 0.378, -42.5609779, 0.378, 6.1585369, 0.378, -25.4878063, 0.0145385, -0.01561, 0.378, 37.3170738, 0.378, -11.4024391, 0.378, -74.9390259, 0.0145385, -0.0035248, 0.378, 35.6097565, 0.378, -12.6219511, 0.378, 4.9390244, 0.0145385, -0.0058747, 0.378, 0.3048781, 0.378, 6.3414636, 0.378, 11.5853662, , , , , , , , , , , , , , , , , , , , , , 
0.0150577, -0.0162814, 0.3915, 8.3536587, 0.3915, -24.4512196, 0.3915, -10.6707315, 0.0150577, 0.0196384, 0.3915, -20.7926826, 0.3915, -29.6341476, 0.3915, -15.3048782, 0.0150577, -0.0253452, 0.3915, -76.0365906, 0.3915, -85.1219559, 0.3915, -48.6585388, 0.0150577, -0.01561, 0.3915, 23.0487804, 0.3915, -3.4756098, 0.3915, -13.4146347, 0.0150577, -0.0191348, 0.3915, -50.2439041, 0.3915, 10.6097565, 0.3915, -25.6097565, 0.0150577, -0.0139315, 0.3915, 53.841465, 0.3915, -48.2317085, 0.3915, -77.8048782, 0.0150577, -0.005539, 0.3915, 31.9512196, 0.3915, -10.3048782, 0.3915, 4.8780489, 0.0150577, -0.0072175, 0.3915, -0.6097561, 0.3915, 3.2926829, 0.3915, 12.560976, , , , , , , , , , , , , , , , , , , , , , 
0.0155769, -0.0125887, 0.405, 8.2317076, 0.405, -29.7560978, 0.405, -14.2073174, 0.0155769, 0.0199741, 0.405, -25.5487804, 0.405, -37.5, 0.405, -16.0365849, 0.0155769, -0.0297093, 0.405, -77.8658524, 0.405, -110.9146347, 0.405, -62.0121956, 0.0155769, -0.0142672, 0.405, 20.6097565, 0.405, -12.1341467, 0.405, -12.9878054, 0.0155769, -0.023331, 0.405, -54.0853653, 0.405, 6.5243902, 0.405, -26.6463413, 0.0155769, -0.0135958, 0.405, 68.1707306, 0.405, -73.5975647, 0.405, -82.7439041, 0.0155769, -0.0072175, 0.405, 29.8780499, 0.405, -10.3048782, 0.405, 5, 0.0155769, -0.0063783, 0.405, 0.1829268, 0.405, -8.5365858, 0.405, 13.0487804, , , , , , , , , , , , , , , , , , , , , , 
0.0160962, -0.0105745, 0.4185, 7.5609756, 0.4185, -37.8658562, 0.4185, -15.9756098, 0.0160962, 0.0213169, 0.4185, -26.5853672, 0.4185, -41.8902435, 0.4185, -16.5853653, 0.0160962, -0.0290379, 0.4185, -87.1341476, 0.4185, -120.6097565, 0.4185, -71.0975647, 0.0160962, -0.0172885, 0.4185, 20.5487804, 0.4185, -20.9146347, 0.4185, -14.3902445, 0.0160962, -0.0203098, 0.4185, -51.0975609, 0.4185, -1.3414634, 0.4185, -29.5731716, 0.0160962, -0.0151064, 0.4185, 80.4268341, 0.4185, -84.9390259, 0.4185, -90.0609741, 0.0160962, -0.0077211, 0.4185, 27.2560978, 0.4185, -13.4146347, 0.4185, 6.8292685, 0.0160962, -0.0062104, 0.4185, -0.0609756, 0.4185, -16.280489, 0.4185, 14.0243902, , , , , , , , , , , , , , , , , , , , , , 
0.0166154, -0.0109102, 0.432, 9.2682924, 0.432, -43.9634171, 0.432, -16.4634151, 0.0166154, 0.0209812, 0.432, -25.4878063, 0.432, -44.5731735, 0.432, -17.1341476, 0.0166154, -0.0270237, 0.432, -98.4146347, 0.432, -117.4390259, 0.432, -77.8658524, 0.0166154, -0.0169528, 0.432, 20.9146347, 0.432, -21.0975609, 0.432, -16.280489, 0.0166154, -0.0142672, 0.432, -41.7682953, 0.432, -9.2073174, 0.432, -33.1707306, 0.0166154, -0.0169528, 0.432, 90.4268341, 0.432, -85.4878082, 0.432, -97.0731735, 0.0166154, -0.0075532, 0.432, 26.6463413, 0.432, -15.6707325, 0.432, 9.4512196, 0.0166154, -0.005539, 0.432, 0.5487805, 0.432, -18.1707325, 0.432, 14.6951227, , , , , , , , , , , , , , , , , , , , , , 
0.0171346, -0.0129244, 0.4455, 10.5487804, 0.4455, -47.9268303, 0.4455, -15.3048782, 0.0171346, 0.0209812, 0.4455, -23.8414631, 0.4455, -50.0609779, 0.4455, -18.7195129, 0.0171346, -0.0276951, 0.4455, -102.9878082, 0.4455, -108.5365906, 0.4455, -84.6341476, 0.0171346, -0.012253, 0.4455, 20.8536587, 0.4455, -15.9146347, 0.4455, -18.6585369, 0.0171346, -0.012253, 0.4455, -29.5731716, 0.4455, -15.6097565, 0.4455, -36.6463432, 0.0171346, -0.0176242, 0.4455, 97.9878082, 0.4455, -78.5365906, 0.4455, -99.6951218, 0.0171346, -0.0090639, 0.4455, 24.5731716, 0.4455, -20.4878044, 0.4455, 12.560976, 0.0171346, -0.0057069, 0.4455, 1.5853659, 0.4455, -13.3536587, 0.4455, 14.0853662, , , , , , , , , , , , , , , , , , , , , , 
0.0176538, -0.018967, 0.459, 10.5487804, 0.459, -48.0487823, 0.459, -14.4512196, 0.0176538, 0.0213169, 0.459, -21.8902435, 0.459, -50.7926826, 0.459, -21.5243912, 0.0176538, -0.0297093, 0.459, -101.2804871, 0.459, -102.0121994, 0.459, -90.2439041, 0.0176538, -0.0095674, 0.459, 20.3658543, 0.459, -12.9268293, 0.459, -20.7317085, 0.0176538, -0.0117494, 0.459, -23.7195129, 0.459, -17.560976, 0.459, -37.8048782, 0.0176538, -0.0196384, 0.459, 102.7439041, 0.459, -69.6951218, 0.459, -97.9268341, 0.0176538, -0.010071, 0.459, 22.8658543, 0.459, -29.2682934, 0.459, 14.5731707, 0.0176538, -0.0104067, 0.459, 3.1707318, 0.459, -5.4268293, 0.459, 13.7195129, , , , , , , , , , , , , , , , , , , , , , 
0.0181731, -0.0243381, 0.4725, 9.4512196, 0.4725, -44.3292694, 0.4725, -14.0853662, 0.0181731, 0.0226596, 0.4725, -21.0365868, 0.4725, -49.5731735, 0.4725, -23.780489, 0.0181731, -0.0303807, 0.4725, -97.4390259, 0.4725, -96.8292694, 0.4725, -92.9268341, 0.0181731, -0.0099031, 0.4725, 19.8780499, 0.4725, -13.3536587, 0.4725, -24.6341476, 0.0181731, -0.0117494, 0.4725, -14.8780489, 0.4725, -18.9634151, 0.4725, -38.841465, 0.0181731, -0.0213169, 0.4725, 104.3902435, 0.4725, -63.4146347, 0.4725, -94.5121994, 0.0181731, -0.010071, 0.4725, 22.2560978, 0.4725, -41.2804871, 0.4725, 15.3658543, 0.0181731, -0.0162814, 0.4725, 6.0975609, 0.4725, -3.1707318, 0.4725, 15.060976, , , , , , , , , , , , , , , , , , , , , , 
0.0186923, -0.0218204, 0.486, 8.4756098, 0.486, -40.6707344, 0.486, -13.4146347, 0.0186923, 0.0226596, 0.486, -22.6829281, 0.486, -49.0243912, 0.486, -26.2195129, 0.0186923, -0.0293736, 0.486, -96.2804871, 0.486, -94.6951218, 0.486, -93.1707306, 0.0186923, -0.0112459, 0.486, 19.2682934, 0.486, -13.841464, 0.486, -26.1585369, 0.0186923, -0.0109102, 0.486, -10.7317076, 0.486, -20.1829281, 0.486, -39.6951218, 0.0186923, -0.0209812, 0.486, 104.5731735, 0.486, -59.0243912, 0.486, -92.1951218, 0.0186923, -0.0095674, 0.486, 21.2195129, 0.486, -53.1707344, 0.486, 16.280489, 0.0186923, -0.0193027, 0.486, 9.1463413, 0.486, -5, 0.486, 15.2439032, , , , , , , , , , , , , , , , , , , , , , 
0.0192115, -0.0130922, 0.4995, 12.4390249, 0.4995, -43.1707344, 0.4995, -10.8536587, 0.0192115, 0.0209812, 0.4995, -20.4268303, 0.4995, -49.2073174, 0.4995, -27.560976, 0.0192115, -0.0287022, 0.4995, -97.3780518, 0.4995, -93.4146347, 0.4995, -93.4756088, 0.0192115, -0.0102388, 0.4995, 17.6219521, 0.4995, -17.560976, 0.4995, -27.9878063, 0.0192115, -0.005539, 0.4995, -11.0365858, 0.4995, -27.6829281, 0.4995, -41.7073174, 0.0192115, -0.0193027, 0.4995, 105.18293, 0.4995, -54.3292694, 0.4995, -92.3780518, 0.0192115, -0.008896, 0.4995, 14.4512196, 0.4995, -59.6951218, 0.4995, 17.3780499, 0.0192115, -0.0203098, 0.4995, 11.341464, 0.4995, -9.9390249, 0.4995, 14.3292685, , , , , , , , , , , , , , , , , , , , , , 
0.0197308, -0.0058747, 0.513, 14.8170738, 0.513, -45.2439041, 0.513, -7.3170733, 0.0197308, 0.0196384, 0.513, -16.2195129, 0.513, -43.5975609, 0.513, -26.7682934, 0.0197308, -0.0303807, 0.513, -99.5731735, 0.513, -93.8414688, 0.513, -93.4146347, 0.0197308, -0.005539, 0.513, 15.1219511, 0.513, -17.7439022, 0.513, -29.8170738, 0.0197308, -0.0001678, 0.513, -10.5487804, 0.513, -42.0731735, 0.513, -45.2439041, 0.0197308, -0.017792, 0.513, 106.5243912, 0.513, -57.3170738, 0.513, -93.1707306, 0.0197308, -0.0078889, 0.513, 8.6585369, 0.513, -67.8048782, 0.513, 17.1951218, 0.0197308, -0.0146029, 0.513, 13.4146347, 0.513, -11.0975609, 0.513, 13.9634151, , , , , , , , , , , , , , , , , , , , , , 
0.02025, -0.0048676, 0.5265, 14.3902445, 0.5265, -40.4268303, 0.5265, -2.5, 0.02025, 0.0199741, 0.5265, -9.4512196, 0.5265, -38.4146347, 0.5265, -25.6097565, 0.02025, -0.0317235, 0.5265, -100.18293, 0.5265, -100.6707306, 0.5265, -93.7195129, 0.02025, 0.0005035, 0.5265, 12.8658543, 0.5265, -11.0365858, 0.5265, -33.4146347, 0.02025, 0.0005035, 0.5265, -6.4634147, 0.5265, -59.2073174, 0.5265, -48.5975609, 0.02025, -0.0162814, 0.5265, 107.3170776, 0.5265, -62.3170738, 0.5265, -92.8658524, 0.02025, -0.0083925, 0.5265, 5.5487804, 0.5265, -81.8902435, 0.5265, 17.1341476, 0.02025, -0.0125887, 0.5265, 16.8902435, 0.5265, -10.7317076, 0.5265, 11.8902445, , , , , , , , , , , , , , , , , , , , , , 
0.0207692, -0.0105745, 0.54, 14.2682934, 0.54, -30.4878063, 0.54, 2.3780489, 0.0207692, 0.0196384, 0.54, -5.3048782, 0.54, -34.2073174, 0.54, -25.4878063, 0.0207692, -0.0317235, 0.54, -95, 0.54, -106.8902435, 0.54, -94.8170776, 0.0207692, 0.0011749, 0.54, 9.7560978, 0.54, -5.7317076, 0.54, -37.8048782, 0.0207692, -0.0015106, 0.54, -1.1585366, 0.54, -77.68293, 0.54, -51.5853653, 0.0207692, -0.0149386, 0.54, 108.5975647, 0.54, -81.9512177, 0.54, -90.18293, 0.0207692, -0.0090639, 0.54, 6.890244, 0.54, -95.9146347, 0.54, 14.9390249, 0.0207692, -0.0176242, 0.54, 22.0731716, 0.54, -4.3292685, 0.54, 10.7317076, , , , , , , , , , , , , , , , , , , , , , 
0.0212885, -0.0196384, 0.5535, 15.3658543, 0.5535, -22.0731716, 0.5535, 6.6463418, 0.0212885, 0.0182956, 0.5535, -3.0487804, 0.5535, -26.280489, 0.5535, -26.5243912, 0.0212885, -0.0310521, 0.5535, -86.7682953, 0.5535, -117.9268341, 0.5535, -96.5853653, 0.0212885, -0.0050355, 0.5535, 7.8048782, 0.5535, -4.8780489, 0.5535, -41.7682953, 0.0212885, -0.0025177, 0.5535, 2.8658538, 0.5535, -94.3902435, 0.5535, -52.6829262, 0.0212885, -0.0162814, 0.5535, 109.0243912, 0.5535, -86.1585388, 0.5535, -85.0609741, 0.0212885, -0.0092317, 0.5535, 7.5609756, 0.5535, -109.146347, 0.5535, 10, 0.0212885, -0.0186313, 0.5535, 25.7317085, 0.5535, -5.1219511, 0.5535, 10.4268293, , , , , , , , , , , , , , , , , , , , , , 
0.0218077, -0.0243381, 0.567, 15.060976, 0.567, -14.0853662, 0.567, 9.6341467, 0.0218077, 0.0186313, 0.567, -3.2317073, 0.567, -15.6097565, 0.567, -29.4512196, 0.0218077, -0.0298772, 0.567, -76.0975647, 0.567, -130.3048859, 0.567, -96.3414688, 0.0218077, -0.0115816, 0.567, 5.2439027, 0.567, -4.9390244, 0.567, -46.341465, 0.0218077, -0.0041962, 0.567, 5.4268293, 0.567, -106.2804871, 0.567, -51.4634171, 0.0218077, -0.0176242, 0.567, 107.4390259, 0.567, -95.6707306, 0.567, -77.8048782, 0.0218077, -0.0082246, 0.567, 5.670732, 0.567, -126.4634171, 0.567, 3.7195122, 0.0218077, -0.0112459, 0.567, 30.9756107, 0.567, -2.9878049, 0.567, 10.8536587, , , , , , , , , , , , , , , , , , , , , , 
0.0223269, -0.0196384, 0.5805, 16.2195129, 0.5805, -12.4390249, 0.5805, 13.1097565, 0.0223269, 0.0199741, 0.5805, -2.0121951, 0.5805, -10.6707315, 0.5805, -32.0731697, 0.0223269, -0.0310521, 0.5805, -65.6097565, 0.5805, -141.0975647, 0.5805, -91.5243912, 0.0223269, -0.0109102, 0.5805, 4.390244, 0.5805, -7.3170733, 0.5805, -50.1829262, 0.0223269, -0.0041962, 0.5805, 7.5, 0.5805, -115.9146347, 0.5805, -49.1463432, 0.0223269, -0.0162814, 0.5805, 102.1341476, 0.5805, -112.8048782, 0.5805, -70.6097565, 0.0223269, -0.0072175, 0.5805, -0.6707317, 0.5805, -141.7682953, 0.5805, -2.2560976, 0.0223269, -0.0072175, 0.5805, 34.9390259, 0.5805, -3.2926829, 0.5805, 12.9268293, , , , , , , , , , , , , , , , , , , , , , 
0.0228462, -0.0218204, 0.594, 17.8048782, 0.594, -13.0487804, 0.594, 16.8902435, 0.0228462, 0.0206455, 0.594, 0.1829268, 0.594, -11.280488, 0.594, -33.1097565, 0.0228462, -0.0327306, 0.594, -58.1097565, 0.594, -157.3170776, 0.594, -85.18293, 0.0228462, -0.0070497, 0.594, 2.3170731, 0.594, -12.5, 0.594, -53.5975609, 0.0228462, -0.0068818, 0.594, 9.5121956, 0.594, -122.0121994, 0.594, -47.8048782, 0.0228462, -0.0162814, 0.594, 95.0609741, 0.594, -135.0609741, 0.594, -67.4390259, 0.0228462, -0.0062104, 0.594, -8.2317076, 0.594, -146.5243988, 0.594, -6.3414636, 0.0228462, -0.0072175, 0.594, 38.6585388, 0.594, -7.9878049, 0.594, 15.6097565, , , , , , , , , , , , , , , , , , , , , , 
0.0233654, -0.0303807, 0.6075, 18.4756107, 0.6075, -13.1707315, 0.6075, 17.560976, 0.0233654, 0.0196384, 0.6075, -0.1829268, 0.6075, -16.4024391, 0.6075, -33.3536606, 0.0233654, -0.0303807, 0.6075, -52.9268303, 0.6075, -177.1951294, 0.6075, -74.1463394, 0.0233654, -0.0075532, 0.6075, 1.7682927, 0.6075, -13.3536587, 0.6075, -56.8902435, 0.0233654, -0.0124208, 0.6075, 11.4634151, 0.6075, -118.9634171, 0.6075, -47.2560997, 0.0233654, -0.0182956, 0.6075, 84.0243912, 0.6075, -150.9146423, 0.6075, -65.6707306, 0.0233654, -0.005539, 0.6075, -11.8292685, 0.6075, -135, 0.6075, -4.8170733, 0.0233654, -0.0048676, 0.6075, 43.3536606, 0.6075, -12.3170738, 0.6075, 16.9512196, , , , , , , , , , , , , , , , , , , , , , 
0.0238846, -0.0298772, 0.621, 19.1463413, 0.621, -8.841464, 0.621, 17.7439022, 0.0238846, 0.0191348, 0.621, -5.1219511, 0.621, -13.1097565, 0.621, -32.4390259, 0.0238846, -0.0263523, 0.621, -44.7560997, 0.621, -187.8048859, 0.621, -58.3536606, 0.0238846, -0.0102388, 0.621, 3.4146342, 0.621, -5.7317076, 0.621, -60.5487823, 0.0238846, -0.0152743, 0.621, 10.1829271, 0.621, -113.5365906, 0.621, -47.4390259, 0.0238846, -0.0191348, 0.621, 68.3536606, 0.621, -159.8170776, 0.621, -60.1219521, 0.0238846, -0.0058747, 0.621, -13.5365858, 0.621, -127.0731735, 0.621, -1.4634147, 0.0238846, 0.0030213, 0.621, 51.7682953, 0.621, -9.7560978, 0.621, 18.5975609, , , , , , , , , , , , , , , , , , , , , , 
0.0244038, -0.0229953, 0.6345, 17.1341476, 0.6345, -8.5975609, 0.6345, 19.3902435, 0.0244038, 0.0199741, 0.6345, -7.3780489, 0.6345, -7.5, 0.6345, -34.3902435, 0.0244038, -0.0250095, 0.6345, -31.7682934, 0.6345, -171.8902435, 0.6345, -41.7073174, 0.0244038, -0.0112459, 0.6345, -0.1219512, 0.6345, -10.1219511, 0.6345, -67.7439041, 0.0244038, -0.0152743, 0.6345, 3.6585367, 0.6345, -94.2073212, 0.6345, -48.2926826, 0.0244038, -0.0196384, 0.6345, 50, 0.6345, -155, 0.6345, -47.9878044, 0.0244038, -0.005539, 0.6345, -18.1707325, 0.6345, -101.9512253, 0.6345, 7.0731707, 0.0244038, 0.017792, 0.6345, 65.2439041, 0.6345, -14.5121956, 0.6345, 21.7682934, , , , , , , , , , , , , , , , , , , , , , 
0.0249231, -0.018967, 0.648, 13.1097565, 0.648, -17.6219521, 0.648, 23.9024391, 0.0249231, 0.0203098, 0.648, -2.3170731, 0.648, -13.780488, 0.648, -40.6097565, 0.0249231, -0.0261845, 0.648, -11.7682934, 0.648, -147.3780518, 0.648, -24.5121956, 0.0249231, -0.0102388, 0.648, -5.7926831, 0.648, -22.7439022, 0.648, -77.1341476, 0.0249231, -0.0139315, 0.648, -1.5243902, 0.648, -67.0121994, 0.648, -43.5365868, 0.0249231, -0.0199741, 0.648, 27.6219521, 0.648, -131.7073212, 0.648, -30.4268303, 0.0249231, -0.0072175, 0.648, -16.0365849, 0.648, -77.8658524, 0.648, 12.8048782, 0.0249231, 0.0226596, 0.648, 77.2560959, 0.648, -22.2560978, 0.648, 22.560976, , , , , , , , , , , , , , , , , , , , , , 
0.0254423, -0.0236667, 0.6615, 7.4390244, 0.6615, -31.6463413, 0.6615, 33.5365868, 0.0254423, 0.0206455, 0.6615, 6.7073174, 0.6615, -34.1463432, 0.6615, -48.2317085, 0.0254423, -0.0263523, 0.6615, 4.1463413, 0.6615, -115.6097565, 0.6615, -3.3536587, 0.0254423, -0.0082246, 0.6615, -14.5731707, 0.6615, -35.0609779, 0.6615, -85.3048782, 0.0254423, -0.0099031, 0.6615, -3.4146342, 0.6615, -44.5731735, 0.6615, -37.1951218, 0.0254423, -0.0193027, 0.6615, 2.6219513, 0.6615, -96.4634171, 0.6615, -13.7195129, 0.0254423, -0.0085603, 0.6615, -15.060976, 0.6615, -64.5121994, 0.6615, 15.7926836, 0.0254423, 0.0137636, 0.6615, 82.0121994, 0.6615, -27.560976, 0.6615, 22.1951218, , , , , , , , , , , , , , , , , , , , , , 
0.0259615, -0.0250095, 0.675, 3.1097562, 0.675, -51.4634171, 0.675, 42.9268303, 0.0259615, 0.0206455, 0.675, 20.1829281, 0.675, -56.1585388, 0.675, -54.4512215, 0.0259615, -0.0253452, 0.675, 7.7439027, 0.675, -101.4634171, 0.675, 7.3170733, 0.0259615, -0.0041962, 0.675, -17.560976, 0.675, -36.8902435, 0.675, -88.8414688, 0.0259615, -0.0090639, 0.675, 0.7926829, 0.675, -27.4390259, 0.675, -31.4634151, 0.0259615, -0.018967, 0.675, -8.780488, 0.675, -77.8048782, 0.675, -7.6219516, 0.0259615, -0.0099031, 0.675, -10.4878054, 0.675, -52.1341476, 0.675, 15.7317076, 0.0259615, 0.0041962, 0.675, 91.4024429, 0.675, -33.5975609, 0.675, 22.0121956, , , , , , , , , , , , , , , , , , , , , , 
0.0264808, -0.0162814, 0.6885, -1.402439, 0.6885, -70.7317123, 0.6885, 49.3902435, 0.0264808, 0.0219883, 0.6885, 42.5609779, 0.6885, -76.1585388, 0.6885, -57.0121956, 0.0264808, -0.0256809, 0.6885, 11.8902445, 0.6885, -77.3170776, 0.6885, 28.5365868, 0.0264808, 0.0005035, 0.6885, -24.3902435, 0.6885, -40.9146347, 0.6885, -98.7195129, 0.0264808, -0.0146029, 0.6885, 5, 0.6885, -20.6097565, 0.6885, -29.6951218, 0.0264808, -0.018967, 0.6885, -29.9390259, 0.6885, -52.7439041, 0.6885, 1.5243902, 0.0264808, -0.0109102, 0.6885, -8.4756098, 0.6885, -37.3780479, 0.6885, 15.2439032, 0.0264808, 0.0008392, 0.6885, 107.8658524, 0.6885, -41.8902435, 0.6885, 23.780489, , , , , , , , , , , , , , , , , , , , , , 
0.027, -0.0139315, 0.702, -9.3902445, 0.702, -83.2317123, 0.702, 55.18293, 0.027, 0.0224918, 0.702, 55.6707344, 0.702, -86.5243912, 0.702, -59.3902435, 0.027, -0.0256809, 0.702, 18.2317085, 0.702, -48.4756126, 0.702, 47.0731735, 0.027, -0.0003357, 0.702, -28.5365868, 0.702, -32.5609779, 0.702, -112.3170776, 0.027, -0.023331, 0.702, 6.5853658, 0.702, -16.8902435, 0.702, -29.5731716, 0.027, -0.0198062, 0.702, -47.9878044, 0.702, -40.0609779, 0.702, 12.3780489, 0.027, -0.0109102, 0.702, -11.1585369, 0.702, -22.8048782, 0.702, 16.280489, 0.027, 0.0025177, 0.702, 127.5, 0.702, -31.280489, 0.702, 25.1219521, , , , , , , , , , , , , , , , , , , , , , 
0.0275192, -0.0359197, 0.7155, -20.1219521, 0.7155, -88.1707306, 0.7155, 62.0731735, 0.0275192, 0.0213169, 0.7155, 61.8902435, 0.7155, -88.8414688, 0.7155, -57.8658562, 0.0275192, -0.0238346, 0.7155, 29.1463413, 0.7155, -41.6463432, 0.7155, 57.0731735, 0.0275192, -0.0041962, 0.7155, -34.3902435, 0.7155, -24.1463413, 0.7155, -123.5365906, 0.0275192, -0.0236667, 0.7155, 8.841464, 0.7155, -10.060976, 0.7155, -26.8902454, 0.0275192, -0.0209812, 0.7155, -59.8170738, 0.7155, -30.9756107, 0.7155, 24.4512196, 0.0275192, -0.0095674, 0.7155, -15.3048782, 0.7155, -14.2682934, 0.7155, 16.7073174, 0.0275192, 0.0018463, 0.7155, 144.5731812, 0.7155, -19.7560978, 0.7155, 24.5731716, , , , , , , , , , , , , , , , , , , , , , 
0.0280385, -0.0647898, 0.729, -32.7439041, 0.729, -104.4512253, 0.729, 69.8780518, 0.0280385, 0.0196384, 0.729, 65.3658524, 0.729, -89.2073212, 0.729, -52.6219521, 0.0280385, -0.0270237, 0.729, 41.7073174, 0.729, -38.0487823, 0.729, 65, 0.0280385, -0.0050355, 0.729, -40.6707344, 0.729, -13.9634151, 0.729, -137.6219482, 0.0280385, -0.0162814, 0.729, 14.8170738, 0.729, -9.8780489, 0.729, -24.0853672, 0.0280385, -0.021149, 0.729, -68.9634171, 0.729, -32.6219521, 0.729, 36.5853653, 0.0280385, -0.0070497, 0.729, -20.6097565, 0.729, -17.8658543, 0.729, 16.280489, 0.0280385, -0.0008392, 0.729, 166.646347, 0.729, -9.0853662, 0.729, 25.7317085, , , , , , , , , , , , , , , , , , , , , , 
0.0285577, -0.0753643, 0.7425, -48.2317085, 0.7425, -139.8170776, 0.7425, 77.68293, 0.0285577, 0.0182956, 0.7425, 74.3902435, 0.7425, -92.9878082, 0.7425, -48.5975609, 0.0285577, -0.030045, 0.7425, 55, 0.7425, -44.8170738, 0.7425, 70.8536606, 0.0285577, -0.0052033, 0.7425, -44.6951218, 0.7425, 6.3414636, 0.7425, -151.646347, 0.0285577, -0.017792, 0.7425, 25.8536587, 0.7425, -17.1951218, 0.7425, -20.6707325, 0.0285577, -0.0203098, 0.7425, -74.4512177, 0.7425, -50.1219521, 0.7425, 47.6829262, 0.0285577, -0.0057069, 0.7425, -24.5731716, 0.7425, -26.9512196, 0.7425, 10.9756098, 0.0285577, -0.002182, 0.7425, 184.2682953, 0.7425, 5.2439027, 0.7425, 25.7926826, , , , , , , , , , , , , , , , , , , , , , 
0.0290769, -0.0659648, 0.756, -63.2926826, 0.756, -176.3414612, 0.756, 88.0487823, 0.0290769, 0.0172885, 0.756, 90.4878082, 0.756, -95.3048782, 0.756, -49.4512215, 0.0290769, -0.0313878, 0.756, 65.18293, 0.756, -53.9634171, 0.756, 66.4024429, 0.0290769, -0.0068818, 0.756, -42.3170738, 0.756, 28.2317085, 0.756, -160.6707306, 0.0290769, -0.0236667, 0.756, 42.3780479, 0.756, -37.7439041, 0.756, -13.6585369, 0.0290769, -0.0172885, 0.756, -69.8170776, 0.756, -60.8536606, 0.756, 56.5853653, 0.0290769, -0.005539, 0.756, -28.4146347, 0.756, -32.0731697, 0.756, 2.195122, 0.0290769, -0.0015106, 0.756, 186.7682953, 0.756, 16.6463413, 0.756, 26.4024391, , , , , , , , , , , , , , , , , , , , , , 
0.0295962, -0.0498512, 0.7695, -71.7073212, 0.7695, -186.2804871, 0.7695, 96.9512253, 0.0295962, 0.0172885, 0.7695, 121.5853653, 0.7695, -111.3414688, 0.7695, -57.6219521, 0.0295962, -0.030045, 0.7695, 69.5121994, 0.7695, -37.8658562, 0.7695, 47.0731735, 0.0295962, -0.008896, 0.7695, -27.6219521, 0.7695, 64.7560959, 0.7695, -165.3048859, 0.0295962, -0.0223239, 0.7695, 59.0853691, 0.7695, -67.0731735, 0.7695, -3.0487804, 0.0295962, -0.0157778, 0.7695, -50.4878044, 0.7695, -42.5, 0.7695, 64.4512177, 0.0295962, -0.0057069, 0.7695, -36.341465, 0.7695, -37.5, 0.7695, -11.4024391, 0.0295962, -0.0028534, 0.7695, 178.5365906, 0.7695, 43.2317085, 0.7695, 30.4878063, , , , , , , , , , , , , , , , , , , , , , 
0.0301154, -0.040116, 0.783, -80.8536606, 0.783, -177.3780518, 0.783, 121.0975647, 0.0301154, 0.0166171, 0.783, 140.1219482, 0.783, -134.8780518, 0.783, -75.7926865, 0.0301154, -0.0287022, 0.783, 70.8536606, 0.783, 11.7682934, 0.783, 37.9878044, 0.0301154, -0.0085603, 0.783, -2.0731707, 0.783, 102.1341476, 0.783, -167.6219482, 0.0301154, -0.0196384, 0.783, 65.4878082, 0.783, -80.18293, 0.783, 3.1707318, 0.0301154, -0.0162814, 0.783, -45.4878044, 0.783, 0.1219512, 0.783, 73.7195129, 0.0301154, -0.0048676, 0.783, -54.3902435, 0.783, -68.9634171, 0.783, -28.9634151, 0.0301154, 0.0005035, 0.783, 163.1707306, 0.783, 68.5365906, 0.783, 37.2560997, , , , , , , , , , , , , , , , , , , , , , 
0.0306346, -0.0417945, 0.7965, -86.8902435, 0.7965, -147.0121918, 0.7965, 142.3780518, 0.0306346, 0.0159457, 0.7965, 156.1585388, 0.7965, -136.2195129, 0.7965, -94.5731735, 0.0306346, -0.0276951, 0.7965, 42.3170738, 0.7965, 256.8902588, 0.7965, 89.0243912, 0.0306346, -0.0097353, 0.7965, 34.2073174, 0.7965, 95.8536606, 0.7965, -175.3048859, 0.0306346, -0.0191348, 0.7965, 59.5121956, 0.7965, -102.1951218, 0.7965, 2.5, 0.0306346, -0.01561, 0.7965, -73.2926865, 0.7965, -82.1951218, 0.7965, 45.1219521, 0.0306346, -0.0058747, 0.7965, -91.7682953, 0.7965, -189.2073212, 0.7965, -17.8048782, 0.0306346, 0.0065461, 0.7965, 128.9634247, 0.7965, 91.5243912, 0.7965, 47.8658562, , , , , , , , , , , , , , , , , , , , , , 
0.0311538, -0.0412909, 0.81, -83.6585388, 0.81, -108.4146347, 0.81, 161.1585388, 0.0311538, 0.0152743, 0.81, 157.7439117, 0.81, -133.4146423, 0.81, -112.0121994, 0.0311538, -0.0253452, 0.81, -61.9512215, 0.81, 71.2804871, 0.81, 104.0853653, 0.0311538, -0.0129244, 0.81, 60.6707344, 0.81, 32.9268303, 0.81, -197.012207, 0.0311538, -0.0216526, 0.81, 67.4390259, 0.81, -54.2073174, 0.81, -32.8048782, 0.0311538, -0.0152743, 0.81, -82.68293, 0.81, 41.1585388, 0.81, 11.9512196, 0.0311538, -0.0065461, 0.81, -50.6097565, 0.81, -242.3780518, 0.81, 16.0365849, 0.0311538, 0.0095674, 0.81, 112.5, 0.81, 94.3902435, 0.81, 63.4756126, , , , , , , , , , , , , , , , , , , , , , 
0.0316731, -0.0350805, 0.8235, -69.8170776, 0.8235, -45.1829262, 0.8235, 178.3536682, 0.0316731, 0.0139315, 0.8235, 188.1097565, 0.8235, -109.8170776, 0.8235, -115.36586, 0.0316731, -0.0234989, 0.8235, 26.7073174, 0.8235, -64.7560959, 0.8235, 145.1829376, 0.0316731, -0.0119173, 0.8235, 82.4390259, 0.8235, -97.9268341, 0.8235, -208.4146423, 0.0316731, -0.026688, 0.8235, -4.5121951, 0.8235, -56.2804909, 0.8235, -56.4024391, 0.0316731, -0.0151064, 0.8235, -140.6097565, 0.8235, 113.1097565, 0.8235, 14.2682934, 0.0316731, -0.0068818, 0.8235, 100.7317123, 0.8235, -37.3170738, 0.8235, 17.6829281, 0.0316731, 0.0075532, 0.8235, 108.3536606, 0.8235, 49.3902435, 0.8235, 125, , , , , , , , , , , , , , , , , , , , , , 
0.0321923, -0.0320592, 0.837, -47.7439041, 0.837, 36.8292694, 0.837, 178.5365906, 0.0321923, 0.0139315, 0.837, 216.0365906, 0.837, -73.4756088, 0.837, -90.3048782, 0.0321923, -0.0226596, 0.837, 66.4634171, 0.837, -115.3048782, 0.837, 148.2926788, 0.0321923, -0.0063783, 0.837, 65, 0.837, -267.6219482, 0.837, -193.3536682, 0.0321923, -0.033402, 0.837, -61.4634171, 0.837, -125.6097565, 0.837, -83.2926865, 0.0321923, -0.0134279, 0.837, -200.9146423, 0.837, 162.9268341, 0.837, 29.9390259, 0.0321923, -0.0068818, 0.837, 37.0731697, 0.837, -60.6097565, 0.837, -10.7926836, 0.0321923, 0.0065461, 0.837, 116.4634171, 0.837, -81.0975647, 0.837, 182.0121918, , , , , , , , , , , , , , , , , , , , , , 
0.0327115, -0.0317235, 0.8505, -95.5487823, 0.8505, 66.6463394, 0.8505, 148.1097565, 0.0327115, 0.0152743, 0.8505, 227.0731812, 0.8505, -73.9024429, 0.8505, -62.8048782, 0.0327115, -0.0224918, 0.8505, 65.9146347, 0.8505, 53.2317085, 0.8505, 174.3902435, 0.0327115, -0.0041962, 0.8505, 52.1341476, 0.8505, -304.3292847, 0.8505, -178.7195129, 0.0327115, -0.0394446, 0.8505, -32.5609779, 0.8505, -197.6219482, 0.8505, -116.0975647, 0.0327115, -0.0134279, 0.8505, -147.1951294, 0.8505, 34.1463432, 0.8505, 62.1951218, 0.0327115, -0.0062104, 0.8505, 10.9146347, 0.8505, -83.6585388, 0.8505, -10.6097565, 0.0327115, 0.0085603, 0.8505, 123.1097565, 0.8505, -220.7926941, 0.8505, 194.146347, , , , , , , , , , , , , , , , , , , , , , 
0.0332308, -0.030045, 0.864, -232.3780518, 0.864, 33.5975609, 0.864, 104.8780518, 0.0332308, 0.0159457, 0.864, 134.2073212, 0.864, -32.9268303, 0.864, -57.3780518, 0.0332308, -0.0221561, 0.864, 79.0853653, 0.864, -55.3658562, 0.864, 163.4146423, 0.0332308, -0.0058747, 0.864, 36.4024391, 0.864, -325.9146423, 0.864, -174.5121918, 0.0332308, -0.0384375, 0.864, -66.5243912, 0.864, -323.2926941, 0.864, -139.2682953, 0.0332308, -0.0146029, 0.864, -171.0365906, 0.864, -30.9146347, 0.864, 90.9756088, 0.0332308, -0.0050355, 0.864, 2.6219513, 0.864, -180.9146423, 0.864, -11.1585369, 0.0332308, 0.0102388, 0.864, 116.0365906, 0.864, -266.7073364, 0.864, 196.1585388, , , , , , , , , , , , , , , , , , , , , , 
0.03375, -0.0303807, 0.8775, -262.6829224, 0.8775, -32.5, 0.8775, 82.0121994, 0.03375, 0.0146029, 0.8775, 75, 0.8775, 5.9756098, 0.8775, -45.0609779, 0.03375, -0.0209812, 0.8775, 38.7804871, 0.8775, -5.8536587, 0.8775, 142.5, 0.03375, -0.0083925, 0.8775, 83.3536606, 0.8775, -273.9634094, 0.8775, -144.5121918, 0.03375, -0.0298772, 0.8775, -40.7317085, 0.8775, -225.1219635, 0.8775, -83.1707306, 0.03375, -0.0137636, 0.8775, -139.4512177, 0.8775, -9.2682924, 0.8775, 27.9878063, 0.03375, -0.0058747, 0.8775, 5.7317076, 0.8775, -278.0487976, 0.8775, -4.3292685, 0.03375, 0.0095674, 0.8775, 74.2073212, 0.8775, -330.1219482, 0.8775, 198.4756165, , , , , , , , , , , , , , , , , , , , , , 
0.0342692, -0.0313878, 0.891, -218.5365906, 0.891, -70, 0.891, 94.5121994, 0.0342692, 0.0132601, 0.891, 155.4268341, 0.891, -22.9878063, 0.891, -29.6341476, 0.0342692, -0.0179599, 0.891, -10.060976, 0.891, 78.5365906, 0.891, 116.1585388, 0.0342692, -0.0099031, 0.891, 190.6097565, 0.891, -72.7439041, 0.891, -78.4756088, 0.0342692, -0.0209812, 0.891, 55.6097565, 0.891, -99.2073212, 0.891, 7.3170733, 0.0342692, -0.0109102, 0.891, -116.2804871, 0.891, 58.4756126, 0.891, 1.7073171, 0.0342692, -0.0062104, 0.891, -41.5853653, 0.891, -208.1707306, 0.891, 8.6585369, 0.0342692, 0.0105745, 0.891, -66.8292694, 0.891, -155.3048859, 0.891, 207.5609741, , , , , , , , , , , , , , , , , , , , , , 
0.0347885, -0.0285344, 0.9045, -168.5975647, 0.9045, -34.6341476, 0.9045, 102.1341476, 0.0347885, 0.0132601, 0.9045, 229.0853729, 0.9045, -39.8170738, 0.9045, -8.1707315, 0.0347885, -0.0159457, 0.9045, -1.5243902, 0.9045, 26.0365868, 0.9045, 102.2561035, 0.0347885, -0.0109102, 0.9045, 272.6829224, 0.9045, 83.9634171, 0.9045, -101.8292694, 0.0347885, -0.0157778, 0.9045, 101.0975647, 0.9045, -68.2317123, 0.9045, -1.1585366, 0.0347885, -0.0097353, 0.9045, -105.9146347, 0.9045, 36.7682953, 0.9045, 9.1463413, 0.0347885, -0.0068818, 0.9045, -78.4146347, 0.9045, -132.8048859, 0.9045, 18.2926826, 0.0347885, 0.0099031, 0.9045, -86.1585388, 0.9045, 184.6341553, 0.9045, 262.6219482, , , , , , , , , , , , , , , , , , , , , , 
0.0353077, -0.0199741, 0.918, -160.0609741, 0.918, -32.6829262, 0.918, 92.8658524, 0.0353077, 0.0146029, 0.918, 241.0365906, 0.918, -34.4512215, 0.918, 19.939024, 0.0353077, -0.0182956, 0.918, 31.4024391, 0.918, -68.5365906, 0.918, 104.5121994, 0.0353077, -0.0112459, 0.918, 334.0243835, 0.918, 171.8902435, 0.918, -62.5, 0.0353077, -0.0129244, 0.918, 72.0731735, 0.918, -64.0243912, 0.918, -48.5975609, 0.0353077, -0.0125887, 0.918, -103.1707306, 0.918, -55.4268303, 0.918, 19.5121956, 0.0353077, -0.0075532, 0.918, -70.4268341, 0.918, -58.4756126, 0.918, 31.6463413, 0.0353077, 0.0082246, 0.918, -119.6951218, 0.918, 368.6585388, 0.918, 280.8536682, , , , , , , , , , , , , , , , , , , , , , 
0.0358269, -0.0115816, 0.9315, -171.5853729, 0.9315, -54.0243912, 0.9315, 58.4756126, 0.0358269, 0.0176242, 0.9315, 236.0975647, 0.9315, -56.4024391, 0.9315, 31.0975609, 0.0358269, -0.0229953, 0.9315, 11.4024391, 0.9315, -78.5365906, 0.9315, 93.4756088, 0.0358269, -0.0119173, 0.9315, 383.6585388, 0.9315, 169.2073212, 0.9315, 72.8658524, 0.0358269, -0.0105745, 0.9315, 60.0609779, 0.9315, -44.5121956, 0.9315, -48.5365868, 0.0358269, -0.0176242, 0.9315, -83.8414688, 0.9315, -78.1097565, 0.9315, -1.8292683, 0.0358269, -0.0078889, 0.9315, -26.8902454, 0.9315, 30.7926846, 0.9315, 41.8292694, 0.0358269, 0.0063783, 0.9315, -273.4146423, 0.9315, 292.9878235, 0.9315, 230.73172, , , , , , , , , , , , , , , , , , , , , , 
0.0363462, -0.0078889, 0.945, -171.5243988, 0.945, -108.7804871, 0.945, 35.5487823, 0.0363462, 0.0213169, 0.945, 240.6707306, 0.945, -92.1951218, 0.945, 56.0365868, 0.0363462, -0.0273594, 0.945, -19.0853672, 0.945, -45.3048782, 0.945, 60.6707344, 0.0363462, -0.0149386, 0.945, 372.1341553, 0.945, 122.9878082, 0.945, 242.8048859, 0.0363462, -0.0092317, 0.945, 32.6219521, 0.945, 34.1463432, 0.945, -17.2560978, 0.0363462, -0.0191348, 0.945, -55.6707344, 0.945, -34.6341476, 0.945, -28.841465, 0.0363462, -0.0068818, 0.945, -11.219512, 0.945, 72.1951218, 0.945, 39.5121956, 0.0363462, 0.002182, 0.945, -453.7804871, 0.945, 161.5853729, 0.945, 137.9878082, , , , , , , , , , , , , , , , , , , , , , 
0.0368654, -0.0082246, 0.9585, -186.2804871, 0.9585, -125.36586, 0.9585, 30, 0.0368654, 0.0243381, 0.9585, 246.9512177, 0.9585, -65.2439041, 0.9585, 83.5365906, 0.0368654, -0.0297093, 0.9585, -23.9024391, 0.9585, -22.0121956, 0.9585, 42.0731735, 0.0368654, -0.0164492, 0.9585, 303.9634094, 0.9585, 45.8536606, 0.9585, 336.0365906, 0.0368654, -0.008896, 0.9585, 6.0365853, 0.9585, 50.0609779, 0.9585, -0.3658537, 0.0368654, -0.0182956, 0.9585, -41.2804871, 0.9585, -5.9146342, 0.9585, -27.0731716, 0.0368654, -0.0082246, 0.9585, -22.8048782, 0.9585, 66.0365906, 0.9585, 37.5609779, 0.0368654, -0.002182, 0.9585, -494.8170776, 0.9585, 129.8170776, 0.9585, 90.6097565, , , , , , , , , , , , , , , , , , , , , , 
0.0373846, -0.0072175, 0.972, -227.4390259, 0.972, -67.1951218, 0.972, 26.0975609, 0.0373846, 0.0260166, 0.972, 261.0365906, 0.972, -15.5487804, 0.972, 121.7682953, 0.0373846, -0.0293736, 0.972, -28.4146347, 0.972, -23.2317085, 0.972, 39.2073174, 0.0373846, -0.0166171, 0.972, 247.5, 0.972, 32.1341476, 0.972, 421.0365906, 0.0373846, -0.0095674, 0.972, 12.1951218, 0.972, 0.6707317, 0.972, -18.780489, 0.0373846, -0.0179599, 0.972, -37.5609779, 0.972, -7.1951222, 0.972, -26.2195129, 0.0373846, -0.0090639, 0.972, -35.1829262, 0.972, 15.6097565, 0.972, 32.6829262, 0.0373846, -0.0052033, 0.972, -509.2683105, 0.972, 125.5487823, 0.972, -20.4268303, , , , , , , , , , , , , , , , , , , , , , 
0.0379038, -0.0068818, 0.9855, -263.9634094, 0.9855, 22.439024, 0.9855, -1.5853659, 0.0379038, 0.0256809, 0.9855, 246.7073212, 0.9855, 15.060976, 0.9855, 159.6951294, 0.0379038, -0.0283665, 0.9855, -27.3780499, 0.9855, -58.7195129, 0.9855, 43.1097565, 0.0379038, -0.0176242, 0.9855, 215.6097565, 0.9855, 75.6097565, 0.9855, 498.9634399, 0.0379038, -0.0112459, 0.9855, 41.1585388, 0.9855, -39.6341476, 0.9855, -33.1707306, 0.0379038, -0.017792, 0.9855, -33.3536606, 0.9855, -38.3536606, 0.9855, -25.8536587, 0.0379038, -0.0082246, 0.9855, -45.0609779, 0.9855, -27.4390259, 0.9855, 21.0365868, 0.0379038, -0.0112459, 0.9855, -547.987793, 0.9855, 152.6829376, 0.9855, -113.7195129, , , , , , , , , , , , , , , , , , , , , , 
0.0384231, -0.0090639, 0.999, -268.4146423, 0.999, 65.6097565, 0.999, -57.7439041, 0.0384231, 0.024506, 0.999, 199.2682953, 0.999, 33.4756088, 0.999, 201.2804871, 0.0384231, -0.0292058, 0.999, -20.7317085, 0.999, -82.68293, 0.999, 20.3658543, 0.0384231, -0.0169528, 0.999, 186.8902435, 0.999, 118.2317123, 0.999, 571.9512329, 0.0384231, -0.0115816, 0.999, 53.1097565, 0.999, -73.4756088, 0.999, -37.9878044, 0.0384231, -0.0176242, 0.999, -18.5365849, 0.999, -71.1585388, 0.999, -23.2317085, 0.0384231, -0.0072175, 0.999, -56.5853653, 0.999, -83.0487823, 0.999, 15.3048782, 0.0384231, -0.0137636, 0.999, -610.0609741, 0.999, 98.7195129, 0.999, -174.146347, , , , , , , , , , , , , , , , , , , , , , 
0.0389423, -0.011078, 1.0125, -268.0487976, 1.0125, 66.4024429, 1.0125, -91.3414688, 0.0389423, 0.0240024, 1.0125, 145.8536682, 1.0125, 48.7804871, 1.0125, 242.5, 0.0389423, -0.0318914, 1.0125, -15.4878054, 1.0125, -91.2804871, 1.0125, -13.4756098, 0.0389423, -0.014435, 1.0125, 121.1585388, 1.0125, 98.2317123, 1.0125, 635.4268188, 0.0389423, -0.0099031, 1.0125, 58.7804909, 1.0125, -84.0853653, 1.0125, -36.7682953, 0.0389423, -0.018967, 1.0125, 9.7560978, 1.0125, -85, 1.0125, -24.0243912, 0.0389423, -0.0065461, 1.0125, -59.1463432, 1.0125, -105.18293, 1.0125, 18.5975609, 0.0389423, -0.0097353, 1.0125, -604.4512329, 1.0125, 47.9878044, 1.0125, -247.9878082, , , , , , , , , , , , , , , , , , , , , , 
0.0394615, -0.0083925, 1.026, -280.4268494, 1.026, 93.7804871, 1.026, -112.3170776, 0.0394615, 0.0236667, 1.026, 101.3414688, 1.026, 59.5121956, 1.026, 269.512207, 0.0394615, -0.0330663, 1.026, -13.780488, 1.026, -83.7195129, 1.026, -25.1829281, 0.0394615, -0.0135958, 1.026, 75.4268341, 1.026, 45.1829262, 1.026, 657.5, 0.0394615, -0.0099031, 1.026, 71.0365906, 1.026, -72.6219559, 1.026, -32.9268303, 0.0394615, -0.0209812, 1.026, 25.6707325, 1.026, -80.7926865, 1.026, -22.6219521, 0.0394615, -0.0070497, 1.026, -64.2682953, 1.026, -102.3780518, 1.026, 23.3536587, 0.0394615, -0.005539, 1.026, -598.2317505, 1.026, 111.7073212, 1.026, -333.4756165, , , , , , , , , , , , , , , , , , , , , , 
0.0399808, -0.0082246, 1.0395, -206.5243988, 1.0395, 96.0975647, 1.0395, -145.2439117, 0.0399808, 0.0238346, 1.0395, 70.3048782, 1.0395, 70.0609741, 1.0395, 281.4634094, 0.0399808, -0.0307164, 1.0395, -14.0853662, 1.0395, -66.4024429, 1.0395, -21.1585369, 0.0399808, -0.0151064, 1.0395, 4.8780489, 1.0395, -10.060976, 1.0395, 662.3780518, 0.0399808, -0.0102388, 1.0395, 74.5731735, 1.0395, -57.9878044, 1.0395, -36.8292694, 0.0399808, -0.0196384, 1.0395, 22.6219521, 1.0395, -61.0975609, 1.0395, -18.5365849, 0.0399808, -0.0085603, 1.0395, -56.7073174, 1.0395, -93.2926865, 1.0395, 34.6951218, 0.0399808, -0.0112459, 1.0395, -641.1585693, 1.0395, -2.2560976, 1.0395, -441.0365906, , , , , , , , , , , , , , , , , , , , , , 
0.0405, -0.0164492, 1.053, -205.8536682, 1.053, 50.5487823, 1.053, -145.7317047, 0.0405, 0.024506, 1.053, 59.3902435, 1.053, 37.8048782, 1.053, 254.3902435, 0.0405, -0.0303807, 1.053, -22.5, 1.053, -49.7560997, 1.053, -15.7317076, 0.0405, -0.0151064, 1.053, -37.0121956, 1.053, -21.280489, 1.053, 658.9024658, 0.0405, -0.0095674, 1.053, 70.4268341, 1.053, -30.7317085, 1.053, -50.0609779, 0.0405, -0.0171206, 1.053, 18.4756107, 1.053, -42.4390259, 1.053, -22.0731716, 0.0405, -0.0078889, 1.053, -47.1951218, 1.053, -53.2926826, 1.053, 42.0121956, 0.0405, -0.0179599, 1.053, -442.3780518, 1.053, -235.36586, 1.053, -445.6097717, , , , , , , , , , , , , , , , , , , , , , 
0.0410192, -0.0246738, 1.0665, -199.4512177, 1.0665, 61.2195129, 1.0665, -133.2317047, 0.0410192, 0.0226596, 1.0665, 48.841465, 1.0665, 2.804878, 1.0665, 208.4146423, 0.0410192, -0.0322271, 1.0665, -26.4024391, 1.0665, -47.8658562, 1.0665, -14.2073174, 0.0410192, -0.0135958, 1.0665, 24.4512196, 1.0665, -55.7317085, 1.0665, 550.0609741, 0.0410192, -0.0075532, 1.0665, 71.1585388, 1.0665, -4.7560978, 1.0665, -71.0975647, 0.0410192, -0.0184634, 1.0665, 17.1951218, 1.0665, -39.8780479, 1.0665, -27.7439022, 0.0410192, -0.0065461, 1.0665, -41.5853653, 1.0665, -39.2682953, 1.0665, 47.9268303, 0.0410192, -0.0130922, 1.0665, -462.9878235, 1.0665, -407.4390259, 1.0665, -236.2804871, , , , , , , , , , , , , , , , , , , , , , 
0.0415385, -0.0236667, 1.08, -142.2561035, 1.08, 119.146347, 1.08, -127.3170776, 0.0415385, 0.0206455, 1.08, -13.9634151, 1.08, 51.0365868, 1.08, 165.4268341, 0.0415385, -0.0337377, 1.08, -31.0975609, 1.08, -67.3170776, 1.08, -13.9634151, 0.0415385, -0.0125887, 1.08, -27.0121956, 1.08, 38.5975609, 1.08, 319.3902588, 0.0415385, -0.0048676, 1.08, 71.4634171, 1.08, -32.7439041, 1.08, -87.2560959, 0.0415385, -0.0216526, 1.08, 19.6951218, 1.08, -62.8048782, 1.08, -32.4390259, 0.0415385, -0.0075532, 1.08, -38.9024391, 1.08, -45.3048782, 1.08, 59.8170738, 0.0415385, -0.0035248, 1.08, -61.2195129, 1.08, 332.5, 1.08, -169.9390259, , , , , , , , , , , , , , , , , , , , , , 
0.0420577, -0.0164492, 1.0935, -63.0487823, 1.0935, 230.9146423, 1.0935, -106.4634171, 0.0420577, 0.0219883, 1.0935, -37.3170738, 1.0935, 64.0243912, 1.0935, 167.7439117, 0.0420577, -0.0345769, 1.0935, -27.9268303, 1.0935, -96.7073212, 1.0935, -19.6951218, 0.0420577, -0.0129244, 1.0935, -117.9878082, 1.0935, -124.9390259, 1.0935, 374.2073364, 0.0420577, -0.0045319, 1.0935, 78.7195129, 1.0935, -62.0731735, 1.0935, -89.3292694, 0.0420577, -0.0218204, 1.0935, 25.3048782, 1.0935, -102.3170776, 1.0935, -35.0609779, 0.0420577, -0.0082246, 1.0935, -54.8780518, 1.0935, -74.4512177, 1.0935, 60.7317085, 0.0420577, -0.0001678, 1.0935, -216.0975647, 1.0935, -364.8170776, 1.0935, -374.5731812, , , , , , , , , , , , , , , , , , , , , , 
0.0425769, -0.012253, 1.107, -165.9756165, 1.107, 131.4024353, 1.107, -107.0731735, 0.0425769, 0.0236667, 1.107, -72.4390259, 1.107, 15.6097565, 1.107, 224.3292694, 0.0425769, -0.0303807, 1.107, -16.7682934, 1.107, -141.3414612, 1.107, -31.4024391, 0.0425769, -0.0139315, 1.107, -216.3414612, 1.107, -272.1341553, 1.107, 304.512207, 0.0425769, -0.0041962, 1.107, 99.8780518, 1.107, -136.646347, 1.107, -86.8292694, 0.0425769, -0.0213169, 1.107, 33.7195129, 1.107, -145.6707306, 1.107, -34.1463432, 0.0425769, -0.0068818, 1.107, -76.2804871, 1.107, -141.2804871, 1.107, 57.1951218, 0.0425769, -0.003357, 1.107, -191.9512177, 1.107, -301.5243835, 1.107, -262.5609741, , , , , , , , , , , , , , , , , , , , , , 
0.0430962, -0.0124208, 1.1205, -236.2804871, 1.1205, 19.3292694, 1.1205, -182.4390259, 0.0430962, 0.0223239, 1.1205, -22.6829281, 1.1205, -102.1341476, 1.1205, 267.9268494, 0.0430962, -0.0199741, 1.1205, -6.8292685, 1.1205, -174.9390259, 1.1205, -41.1585388, 0.0430962, -0.0132601, 1.1205, -99.5731735, 1.1205, 72.8048782, 1.1205, 259.6341553, 0.0430962, -0.0045319, 1.1205, 97.5609741, 1.1205, -179.8780518, 1.1205, -92.3780518, 0.0430962, -0.0179599, 1.1205, 37.1341476, 1.1205, -165.1219482, 1.1205, -32.9878044, 0.0430962, -0.0085603, 1.1205, -86.0365906, 1.1205, -205.9146423, 1.1205, 56.2195129, 0.0430962, -0.0068818, 1.1205, -148.5365906, 1.1205, -88.2926865, 1.1205, -219.7561035, , , , , , , , , , , , , , , , , , , , , , 
0.0436154, -0.0130922, 1.134, -216.4024506, 1.134, -38.2317085, 1.134, -252.5609741, 0.0436154, 0.0219883, 1.134, -26.8292694, 1.134, -181.5243988, 1.134, 244.0853729, 0.0436154, -0.0099031, 1.134, -2.3780489, 1.134, -185.7317047, 1.134, -42.3780479, 0.0436154, -0.0109102, 1.134, -65.6097565, 1.134, 303.7195129, 1.134, 130.8536682, 0.0436154, -0.0062104, 1.134, 77.8658524, 1.134, -206.7682953, 1.134, -96.2804871, 0.0436154, -0.0129244, 1.134, 39.2073174, 1.134, -178.6585388, 1.134, -30.3048782, 0.0436154, -0.0078889, 1.134, -84.2073212, 1.134, -239.9390259, 1.134, 57.68293, 0.0436154, -0.0065461, 1.134, -121.1585388, 1.134, 65.8536606, 1.134, -200.4878082, , , , , , , , , , , , , , , , , , , , , , 
0.0441346, -0.0135958, 1.1475, -133.5365906, 1.1475, -170.9756165, 1.1475, -262.5, 0.0441346, 0.0209812, 1.1475, -32.0121956, 1.1475, -172.6829376, 1.1475, 204.146347, 0.0441346, -0.010071, 1.1475, -5.5487804, 1.1475, -175.7317047, 1.1475, -27.0121956, 0.0441346, -0.008896, 1.1475, -192.8048859, 1.1475, 170.1219482, 1.1475, -28.2317085, 0.0441346, -0.005539, 1.1475, 65.4878082, 1.1475, -221.2804871, 1.1475, -102.5, 0.0441346, -0.012253, 1.1475, 29.1463413, 1.1475, -169.5731812, 1.1475, -28.9634151, 0.0441346, -0.0050355, 1.1475, -71.6463394, 1.1475, -246.4024506, 1.1475, 56.0975609, 0.0441346, -0.0052033, 1.1475, 101.3414688, 1.1475, 157.5609741, 1.1475, -210.4878082, , , , , , , , , , , , , , , , , , , , , , 
0.0446538, -0.0132601, 1.161, -87.3170776, 1.161, -139.7561035, 1.161, -224.3292694, 0.0446538, 0.0193027, 1.161, -31.5853672, 1.161, -220.9146423, 1.161, 191.7073212, 0.0446538, -0.0166171, 1.161, -21.4024391, 1.161, -155, 1.161, -2.8658538, 0.0446538, -0.008896, 1.161, -278.0487976, 1.161, -32.5609779, 1.161, -54.6341476, 0.0446538, -0.0041962, 1.161, 65.5487823, 1.161, -216.4024506, 1.161, -111.3414688, 0.0446538, -0.0149386, 1.161, 13.841464, 1.161, -144.6951294, 1.161, -32.4390259, 0.0446538, -0.0050355, 1.161, -67.1951218, 1.161, -239.2682953, 1.161, 50.7926826, 0.0446538, -0.0028534, 1.161, 200.9146423, 1.161, 89.2682953, 1.161, -221.7682953, , , , , , , , , , , , , , , , , , , , , , 
0.0451731, -0.0129244, 1.1745, -86.646347, 1.1745, -123.8414688, 1.1745, -186.7682953, 0.0451731, 0.018967, 1.1745, -11.219512, 1.1745, -256.0975647, 1.1745, 156.0975647, 0.0451731, -0.0223239, 1.1745, -34.2682953, 1.1745, -133.7804871, 1.1745, 11.219512, 0.0451731, -0.011078, 1.1745, -307.1951294, 1.1745, -215.9146423, 1.1745, -74.3292694, 0.0451731, -0.0058747, 1.1745, 71.7682953, 1.1745, -204.4512177, 1.1745, -118.9024429, 0.0451731, -0.0186313, 1.1745, 2.9268293, 1.1745, -127.68293, 1.1745, -40.1219521, 0.0451731, -0.0065461, 1.1745, -60.4268303, 1.1745, -230.3048859, 1.1745, 51.7073174, 0.0451731, -0.0003357, 1.1745, 206.3414612, 1.1745, -259.512207, 1.1745, -185.9146423, , , , , , , , , , , , , , , , , , , , , , 
0.0456923, -0.0115816, 1.188, -80.4268341, 1.188, -148.9024353, 1.188, -173.5975647, 0.0456923, 0.0203098, 1.188, 3.2317073, 1.188, -252.9878082, 1.188, 112.9878082, 0.0456923, -0.0270237, 1.188, -42.6829262, 1.188, -129.5121918, 1.188, 8.719512, 0.0456923, -0.012253, 1.188, -334.9390259, 1.188, -315.4878235, 1.188, -101.1585388, 0.0456923, -0.0058747, 1.188, 79.2682953, 1.188, -189.6341553, 1.188, -122.2561035, 0.0456923, -0.0203098, 1.188, 2.5609756, 1.188, -118.6585388, 1.188, -49.3292694, 0.0456923, -0.0065461, 1.188, -49.0243912, 1.188, -211.4634247, 1.188, 54.6341476, 0.0456923, 0.0018463, 1.188, 232.6829376, 1.188, -349.2073364, 1.188, -157.86586, , , , , , , , , , , , , , , , , , , , , , 
0.0462115, -0.0125887, 1.2015, -83.4756088, 1.2015, -189.6951294, 1.2015, -185.6707306, 0.0462115, 0.0204776, 1.2015, 7.1951222, 1.2015, -254.146347, 1.2015, 82.1951218, 0.0462115, -0.0302129, 1.2015, -32.8048782, 1.2015, -144.5121918, 1.2015, -2.9878049, 0.0462115, -0.0112459, 1.2015, -324.6341553, 1.2015, -299.0243835, 1.2015, -126.8902435, 0.0462115, -0.0045319, 1.2015, 78.7195129, 1.2015, -165.3048859, 1.2015, -120.18293, 0.0462115, -0.0186313, 1.2015, 8.2926826, 1.2015, -118.6585388, 1.2015, -49.4512215, 0.0462115, -0.0058747, 1.2015, -40.3658562, 1.2015, -192.9878082, 1.2015, 57.0731735, 0.0462115, 0.0023499, 1.2015, 254.6341553, 1.2015, -300, 1.2015, -143.0487823, , , , , , , , , , , , , , , , , , , , , , 
0.0467308, -0.0135958, 1.215, -68.8414688, 1.215, -228.1707306, 1.215, -197.7439117, 0.0467308, 0.018967, 1.215, 5.1829271, 1.215, -266.6463623, 1.215, 71.5853653, 0.0467308, -0.0310521, 1.215, -13.0487804, 1.215, -172.5609741, 1.215, -12.5, 0.0467308, -0.0102388, 1.215, -305.9756165, 1.215, -247.9268341, 1.215, -128.0487823, 0.0467308, -0.0058747, 1.215, 69.1463394, 1.215, -143.4146423, 1.215, -116.4634171, 0.0467308, -0.0164492, 1.215, 13.4146347, 1.215, -131.0975647, 1.215, -38.5365868, 0.0467308, -0.0062104, 1.215, -36.2195129, 1.215, -181.1585388, 1.215, 56.0975609, 0.0467308, 0.0011749, 1.215, 276.2195129, 1.215, -243.1707306, 1.215, -146.0365906, , , , , , , , , , , , , , , , , , , , , , 
0.04725, -0.0130922, 1.2285, -59.6951218, 1.2285, -236.4024506, 1.2285, -197.6829376, 0.04725, 0.0186313, 1.2285, -15.4268293, 1.2285, -294.3292847, 1.2285, 78.2926865, 0.04725, -0.0310521, 1.2285, -5.670732, 1.2285, -188.4756165, 1.2285, -13.3536587, 0.04725, -0.0119173, 1.2285, -277.2561035, 1.2285, -145.5487823, 1.2285, -136.0365906, 0.04725, -0.0085603, 1.2285, 54.1463432, 1.2285, -121.7682953, 1.2285, -111.3414688, 0.04725, -0.0162814, 1.2285, 16.5243912, 1.2285, -153.7804871, 1.2285, -28.5365868, 0.04725, -0.0072175, 1.2285, -35.6707344, 1.2285, -172.1951294, 1.2285, 48.841465, 0.04725, -0.0015106, 1.2285, 264.512207, 1.2285, -210.1219635, 1.2285, -138.8414612, , , , , , , , , , , , , , , , , , , , , , 
0.0477692, -0.0162814, 1.242, -46.0365868, 1.242, -226.1585388, 1.242, -188.5975647, 0.0477692, 0.0199741, 1.242, -77.68293, 1.242, -324.4512329, 1.242, 91.1585388, 0.0477692, -0.0276951, 1.242, -11.5853662, 1.242, -179.5731812, 1.242, -3.5365853, 0.0477692, -0.0142672, 1.242, -233.7804871, 1.242, -111.3414688, 1.242, -152.8048859, 0.0477692, -0.0097353, 1.242, 38.7195129, 1.242, -110.6097565, 1.242, -106.0975647, 0.0477692, -0.0172885, 1.242, 11.5853662, 1.242, -152.6829376, 1.242, -29.4512196, 0.0477692, -0.0070497, 1.242, -36.5243912, 1.242, -166.5853729, 1.242, 38.4756088, 0.0477692, -0.0046998, 1.242, 243.7804871, 1.242, -173.1097565, 1.242, -105.0609818, , , , , , , , , , , , , , , , , , , , , , 
0.0482885, -0.0229953, 1.2555, -37.3780479, 1.2555, -209.2073212, 1.2555, -187.4390259, 0.0482885, 0.018967, 1.2555, -112.3780518, 1.2555, -332.9268494, 1.2555, 98.6585388, 0.0482885, -0.023331, 1.2555, -16.0365849, 1.2555, -168.1707306, 1.2555, 2.3170731, 0.0482885, -0.0129244, 1.2555, -200.1829376, 1.2555, -101.0365906, 1.2555, -165.3048859, 0.0482885, -0.0095674, 1.2555, 31.4024391, 1.2555, -113.4756088, 1.2555, -103.2926865, 0.0482885, -0.0172885, 1.2555, 2.0121951, 1.2555, -128.4756165, 1.2555, -34.2682953, 0.0482885, -0.0070497, 1.2555, -38.1707344, 1.2555, -167.3170776, 1.2555, 31.7073174, 0.0482885, -0.0068818, 1.2555, 239.3292694, 1.2555, -129.9390259, 1.2555, -70.7926865, , , , , , , , , , , , , , , , , , , , , , 
0.0488077, -0.0236667, 1.269, -42.0731735, 1.269, -210.2439117, 1.269, -195.1829376, 0.0488077, 0.0191348, 1.269, -132.2561035, 1.269, -299.0853577, 1.269, 109.9390259, 0.0488077, -0.0226596, 1.269, -23.780489, 1.269, -143.7804871, 1.269, 10.6707315, 0.0488077, -0.0119173, 1.269, -181.4024506, 1.269, -140, 1.269, -170.4878082, 0.0488077, -0.0077211, 1.269, 22.1951218, 1.269, -126.2195129, 1.269, -98.8414688, 0.0488077, -0.0162814, 1.269, -1.7073171, 1.269, -114.8780518, 1.269, -35.9146347, 0.0488077, -0.0082246, 1.269, -38.6585388, 1.269, -172.5, 1.269, 31.2195129, 0.0488077, -0.0062104, 1.269, 234.3902435, 1.269, -111.9512253, 1.269, -56.0365868, , , , , , , , , , , , , , , , , , , , , , 
0.0493269, -0.0198062, 1.2825, -52.1951218, 1.2825, -204.5731812, 1.2825, -195.5487823, 0.0493269, 0.0206455, 1.2825, -112.3170776, 1.2825, -252.86586, 1.2825, 107.9878082, 0.0493269, -0.0253452, 1.2825, -24.1463413, 1.2825, -128.5365906, 1.2825, 13.7195129, 0.0493269, -0.012253, 1.2825, -159.2682953, 1.2825, -179.7561035, 1.2825, -165.4268341, 0.0493269, -0.0068818, 1.2825, 21.7682934, 1.2825, -136.1585388, 1.2825, -97.0121994, 0.0493269, -0.0157778, 1.2825, -5.9756098, 1.2825, -96.2195129, 1.2825, -35.8536606, 0.0493269, -0.0099031, 1.2825, -38.2926826, 1.2825, -173.5975647, 1.2825, 32.3780479, 0.0493269, -0.0048676, 1.2825, 217.9268341, 1.2825, -96.646347, 1.2825, -25.5487804, , , , , , , , , , , , , , , , , , , , , , 
0.0498462, -0.0182956, 1.296, -54.0243912, 1.296, -187.4390259, 1.296, -199.512207, 0.0498462, 0.0209812, 1.296, -88.4756088, 1.296, -254.8780518, 1.296, 110.4878082, 0.0498462, -0.0263523, 1.296, -20.6097565, 1.296, -131.0975647, 1.296, 12.9268293, 0.0498462, -0.0135958, 1.296, -135.0609741, 1.296, -198.1707306, 1.296, -156.7682953, 0.0498462, -0.0082246, 1.296, 26.4024391, 1.296, -133.9634247, 1.296, -95.6097565, 0.0498462, -0.0172885, 1.296, -4.9390244, 1.296, -100.4878082, 1.296, -31.7682934, 0.0498462, -0.0102388, 1.296, -36.8902435, 1.296, -173.1097565, 1.296, 35, 0.0498462, -0.0031891, 1.296, 203.8414612, 1.296, -136.2195129, 1.296, 3.4146342, , , , , , , , , , , , , , , , , , , , , , 
0.0503654, -0.0209812, 1.3095, -55, 1.3095, -182.8048859, 1.3095, -209.2073212, 0.0503654, 0.0199741, 1.3095, -63.9634171, 1.3095, -257.012207, 1.3095, 117.1341476, 0.0503654, -0.026688, 1.3095, -15.060976, 1.3095, -142.3170776, 1.3095, 5.609756, 0.0503654, -0.0149386, 1.3095, -124.3292694, 1.3095, -217.1951294, 1.3095, -147.5609741, 0.0503654, -0.0095674, 1.3095, 28.0487804, 1.3095, -127.5, 1.3095, -95.7926865, 0.0503654, -0.0169528, 1.3095, 1.5853659, 1.3095, -117.5, 1.3095, -27.5, 0.0503654, -0.0095674, 1.3095, -34.0243912, 1.3095, -168.7804871, 1.3095, 38.1097565, 0.0503654, -0.005539, 1.3095, 199.0853729, 1.3095, -213.9634247, 1.3095, 22.3780499, , , , , , , , , , , , , , , , , , , , , , 
0.0508846, -0.0250095, 1.323, -41.9512215, 1.323, -166.2804871, 1.323, -209.5731812, 0.0508846, 0.0176242, 1.323, -69.7560959, 1.323, -222.3780518, 1.323, 119.5121994, 0.0508846, -0.0276951, 1.323, -15.3658543, 1.323, -145.9146423, 1.323, 1.097561, 0.0508846, -0.0157778, 1.323, -104.4512253, 1.323, -191.2804871, 1.323, -140.0609741, 0.0508846, -0.0095674, 1.323, 30.9756107, 1.323, -120.18293, 1.323, -97.8658524, 0.0508846, -0.0172885, 1.323, 6.0975609, 1.323, -123.9024429, 1.323, -26.7073174, 0.0508846, -0.0085603, 1.323, -32.3170738, 1.323, -156.5853729, 1.323, 41.341465, 0.0508846, -0.0092317, 1.323, 178.7195129, 1.323, -212.012207, 1.323, 27.8658543, , , , , , , , , , , , , , , , , , , , , , 
0.0514038, -0.0350805, 1.3365, -13.5975609, 1.3365, -115.6707306, 1.3365, -197.2561035, 0.0514038, 0.0172885, 1.3365, -92.2561035, 1.3365, -156.4024353, 1.3365, 113.9024429, 0.0514038, -0.0283665, 1.3365, -20.1219521, 1.3365, -136.5853729, 1.3365, 5.8536587, 0.0514038, -0.0140993, 1.3365, -87.68293, 1.3365, -161.1585388, 1.3365, -131.1585388, 0.0514038, -0.008896, 1.3365, 33.4146347, 1.3365, -112.4390259, 1.3365, -97.68293, 0.0514038, -0.0171206, 1.3365, 1.7073171, 1.3365, -113.2317123, 1.3365, -30.3048782, 0.0514038, -0.0082246, 1.3365, -30.9756107, 1.3365, -144.2073212, 1.3365, 44.5731735, 0.0514038, -0.0092317, 1.3365, 158.7804871, 1.3365, -198.9024506, 1.3365, 23.2317085, , , , , , , , , , , , , , , , , , , , , , 
0.0519231, -0.0392767, 1.35, 21.0975609, 1.35, -53.2317085, 1.35, -176.8292694, 0.0519231, 0.018967, 1.35, -86.2804871, 1.35, -117.9268341, 1.35, 105.3048782, 0.0519231, -0.0271916, 1.35, -26.8902454, 1.35, -128.5365906, 1.35, 13.2317076, 0.0519231, -0.0115816, 1.35, -80.1219559, 1.35, -155.1829376, 1.35, -121.7682953, 0.0519231, -0.0104067, 1.35, 34.1463432, 1.35, -111.3414688, 1.35, -91.2804871, 0.0519231, -0.0171206, 1.35, -4.5731707, 1.35, -102.4390259, 1.35, -35.7926826, 0.0519231, -0.0068818, 1.35, -29.2682934, 1.35, -138.6585388, 1.35, 43.9634171, 0.0519231, -0.0057069, 1.35, 142.7439117, 1.35, -199.3292694, 1.35, 9.5121956, , , , , , , , , , , , , , , , , , , , , , 
0.0524423, -0.0303807, 1.3635, 39.6341476, 1.3635, -14.3902445, 1.3635, -154.5731812, 0.0524423, 0.0186313, 1.3635, -89.2682953, 1.3635, -98.0487823, 1.3635, 95.7317123, 0.0524423, -0.0271916, 1.3635, -31.6463413, 1.3635, -123.7804871, 1.3635, 16.280489, 0.0524423, -0.0124208, 1.3635, -82.7439041, 1.3635, -173.1097565, 1.3635, -104.4512253, 0.0524423, -0.0112459, 1.3635, 32.3170738, 1.3635, -112.9878082, 1.3635, -83.6585388, 0.0524423, -0.0171206, 1.3635, -7.1951222, 1.3635, -103.4146347, 1.3635, -40.3658562, 0.0524423, -0.0065461, 1.3635, -25.9146347, 1.3635, -132.0121918, 1.3635, 44.0853653, 0.0524423, -0.0036927, 1.3635, 122.86586, 1.3635, -197.1341553, 1.3635, -2.9268293, , , , , , , , , , , , , , , , , , , , , , 
0.0529615, -0.0236667, 1.377, 41.8292694, 1.377, -12.0731707, 1.377, -135.9756165, 0.0529615, 0.0172885, 1.377, -95.3658524, 1.377, -88.4146347, 1.377, 87.7439041, 0.0529615, -0.0271916, 1.377, -29.8780499, 1.377, -135.4268341, 1.377, 13.4756098, 0.0529615, -0.0142672, 1.377, -88.4756088, 1.377, -197.9268341, 1.377, -85.18293, 0.0529615, -0.0104067, 1.377, 27.1951218, 1.377, -113.3536606, 1.377, -81.9512177, 0.0529615, -0.0172885, 1.377, -5.2439027, 1.377, -116.1585388, 1.377, -41.0975609, 0.0529615, -0.0062104, 1.377, -26.5243912, 1.377, -133.1097565, 1.377, 42.2560997, 0.0529615, -0.0025177, 1.377, 107.6219559, 1.377, -192.6219482, 1.377, -7.0121951, , , , , , , , , , , , , , , , , , , , , , 
0.0534808, -0.0253452, 1.3905, 37.6829262, 1.3905, -19.8170738, 1.3905, -130.0609741, 0.0534808, 0.0172885, 1.3905, -90, 1.3905, -95.8536606, 1.3905, 80.9756088, 0.0534808, -0.0265202, 1.3905, -25.4268303, 1.3905, -151.1585388, 1.3905, 6.5853658, 0.0534808, -0.0135958, 1.3905, -90.9756088, 1.3905, -204.6341553, 1.3905, -76.646347, 0.0534808, -0.0092317, 1.3905, 24.5731716, 1.3905, -111.2804871, 1.3905, -83.2926865, 0.0534808, -0.0166171, 1.3905, 0.4268293, 1.3905, -131.7073212, 1.3905, -38.841465, 0.0534808, -0.0058747, 1.3905, -29.0853672, 1.3905, -138.4756165, 1.3905, 37.9268303, 0.0534808, -0.0028534, 1.3905, 99.146347, 1.3905, -197.2561035, 1.3905, -9.9390249, , , , , , , , , , , , , , , , , , , , , , 
0.054, -0.0256809, 1.404, 22.9268303, 1.404, -51.8292694, 1.404, -126.2804871, 0.054, 0.0159457, 1.404, -87.2560959, 1.404, -104.8780518, 1.404, 70.6707306, 0.054, -0.0276951, 1.404, -22.8658543, 1.404, -155.7317047, 1.404, -0.1219512, 0.054, -0.012253, 1.404, -90.5487823, 1.404, -202.1951294, 1.404, -64.2073212, 0.054, -0.008896, 1.404, 25.060976, 1.404, -110.8536606, 1.404, -83.7804871, 0.054, -0.0146029, 1.404, 5.3048782, 1.404, -134.5121918, 1.404, -37.6219521, 0.054, -0.005539, 1.404, -30.1829281, 1.404, -140.9756165, 1.404, 33.9634171, 0.054, 0, 1.404, 87.5609741, 1.404, -187.86586, 1.404, -16.4024391, , , , , , , , , , , , , , , , , , , , , , 
0.0545192, -0.0176242, 1.4175, 12.0731707, 1.4175, -75.7317123, 1.4175, -126.9512253, 0.0545192, 0.0159457, 1.4175, -83.2317123, 1.4175, -111.2195129, 1.4175, 58.4146347, 0.0545192, -0.0283665, 1.4175, -24.8170738, 1.4175, -149.8170776, 1.4175, -1.402439, 0.0545192, -0.0135958, 1.4175, -78.5975647, 1.4175, -175.9146423, 1.4175, -57.68293, 0.0545192, -0.0109102, 1.4175, 26.8292694, 1.4175, -109.5731735, 1.4175, -82.68293, 0.0545192, -0.0125887, 1.4175, 5.9146342, 1.4175, -130.0609741, 1.4175, -38.4146347, 0.0545192, -0.005539, 1.4175, -29.3902454, 1.4175, -139.8780518, 1.4175, 33.0487823, 0.0545192, 0, 1.4175, 80.3048782, 1.4175, -175.2439117, 1.4175, -18.5365849, , , , , , , , , , , , , , , , , , , , , , 
0.0550385, -0.0102388, 1.431, 17.0731716, 1.431, -75, 1.431, -124.7561035, 0.0550385, 0.0172885, 1.431, -82.8658524, 1.431, -111.8902435, 1.431, 52.8048782, 0.0550385, -0.0290379, 1.431, -29.9390259, 1.431, -136.0975647, 1.431, 5.1829271, 0.0550385, -0.0152743, 1.431, -61.0365868, 1.431, -150, 1.431, -52.5609779, 0.0550385, -0.0112459, 1.431, 27.2560978, 1.431, -101.7073212, 1.431, -80.1219559, 0.0550385, -0.0142672, 1.431, 3.1097562, 1.431, -117.4390259, 1.431, -40.6097565, 0.0550385, -0.005539, 1.431, -27.3170738, 1.431, -132.86586, 1.431, 34.8170738, 0.0550385, 0, 1.431, 70.5487823, 1.431, -152.1951294, 1.431, -16.2195129, , , , , , , , , , , , , , , , , , , , , , 
0.0555577, -0.0097353, 1.4445, 34.1463432, 1.4445, -66.1585388, 1.4445, -118.7195129, 0.0555577, 0.0182956, 1.4445, -83.9024429, 1.4445, -103.8414688, 1.4445, 49.1463432, 0.0555577, -0.0287022, 1.4445, -30.060976, 1.4445, -140.36586, 1.4445, 12.560976, 0.0555577, -0.01561, 1.4445, -38.9024391, 1.4445, -139.4512177, 1.4445, -46.7073174, 0.0555577, -0.0095674, 1.4445, 25.9756107, 1.4445, -93.7195129, 1.4445, -78.5975647, 0.0555577, -0.0176242, 1.4445, -3.8414636, 1.4445, -112.9268341, 1.4445, -42.7439041, 0.0555577, -0.0048676, 1.4445, -22.9878063, 1.4445, -122.9268341, 1.4445, 39.5121956, 0.0555577, 0, 1.4445, 57.7439041, 1.4445, -128.9024353, 1.4445, -3.8414636, , , , , , , , , , , , , , , , , , , , , , 
0.0560769, -0.0112459, 1.458, 47.4390259, 1.458, -60.6097565, 1.458, -113.2926865, 0.0560769, 0.0186313, 1.458, -93.8414688, 1.458, -88.5975647, 1.458, 54.1463432, 0.0560769, -0.0290379, 1.458, -30.1219521, 1.458, -148.1097565, 1.458, 14.3292685, 0.0560769, -0.0152743, 1.458, -11.219512, 1.458, -133.0487823, 1.458, -39.4512215, 0.0560769, -0.0092317, 1.458, 25.7926826, 1.458, -90.1219559, 1.458, -79.2682953, 0.0560769, -0.0203098, 1.458, -8.4756098, 1.458, -123.2926865, 1.458, -43.9634171, 0.0560769, -0.0041962, 1.458, -20.7926826, 1.458, -118.9024429, 1.458, 42.9878044, 0.0560769, 0, 1.458, 33.4756088, 1.458, -101.4634171, 1.458, 17.560976, , , , , , , , , , , , , , , , , , , , , , 
0.0565962, -0.0135958, 1.4715, 49.0243912, 1.4715, -52.0731735, 1.4715, -110.5487823, 0.0565962, 0.0182956, 1.4715, -106.2804871, 1.4715, -79.2073212, 1.4715, 55.18293, 0.0565962, -0.0273594, 1.4715, -27.9268303, 1.4715, -163.3536682, 1.4715, 14.5121956, 0.0565962, -0.0152743, 1.4715, 18.1707325, 1.4715, -107.1951218, 1.4715, -35.5487823, 0.0565962, -0.0109102, 1.4715, 28.4756107, 1.4715, -87.5609741, 1.4715, -82.6219559, 0.0565962, -0.0203098, 1.4715, -8.2317076, 1.4715, -141.2804871, 1.4715, -44.1463432, 0.0565962, -0.0058747, 1.4715, -19.5121956, 1.4715, -116.5853653, 1.4715, 45.2439041, 0.0565962, 0, 1.4715, 15.5487804, 1.4715, -72.3170776, 1.4715, 40.6097565, , , , , , , , , , , , , , , , , , , , , , 
0.0571154, -0.0221561, 1.485, 36.8292694, 1.485, -37.1341476, 1.485, -108.4756088, 0.0571154, 0.0182956, 1.485, -104.9390259, 1.485, -85.3658524, 1.485, 47.3170738, 0.0571154, -0.026688, 1.485, -25, 1.485, -173.1097565, 1.485, 9.8170738, 0.0571154, -0.0109102, 1.485, 39.3902435, 1.485, -83.4146347, 1.485, -33.5975609, 0.0571154, -0.012253, 1.485, 30.2439022, 1.485, -88.3536606, 1.485, -88.2926865, 0.0571154, -0.018967, 1.485, -4.3292685, 1.485, -152.9878082, 1.485, -43.1707344, 0.0571154, -0.0078889, 1.485, -19.7560978, 1.485, -123.1707382, 1.485, 45.6707344, 0.0571154, 0, 1.485, 15.7926836, 1.485, -81.2195129, 1.485, 58.5975609, , , , , , , , , , , , , , , , , , , , , , 
0.0576346, -0.043473, 1.4985, 19.5731716, 1.4985, -40.3658562, 1.4985, -108.3536606, 0.0576346, 0.0169528, 1.4985, -98.5975647, 1.4985, -104.2682953, 1.4985, 38.841465, 0.0576346, -0.0276951, 1.4985, -24.4512196, 1.4985, -174.0853729, 1.4985, 7.2560978, 0.0576346, -0.0010071, 1.4985, 56.4024391, 1.4985, -75.4878082, 1.4985, -35.2439041, 0.0576346, -0.012253, 1.4985, 27.0121956, 1.4985, -93.5975647, 1.4985, -93.8414688, 0.0576346, -0.0179599, 1.4985, -3.2926829, 1.4985, -155.7317047, 1.4985, -44.2073174, 0.0576346, -0.0083925, 1.4985, -19.3292694, 1.4985, -132.8048859, 1.4985, 46.7073174, 0.0576346, 0, 1.4985, 12.2560978, 1.4985, -85.6097565, 1.4985, 73.7195129, , , , , , , , , , , , , , , , , , , , , , 
0.0581538, -0.0699931, 1.512, 14.2682934, 1.512, -70.18293, 1.512, -109.0243912, 0.0581538, 0.0166171, 1.512, -94.0243912, 1.512, -119.2682953, 1.512, 29.2682934, 0.0581538, -0.0295415, 1.512, -26.7682934, 1.512, -171.646347, 1.512, 10.7317076, 0.0581538, 0.0075532, 1.512, 66.2804871, 1.512, -92.5609741, 1.512, -38.2926826, 0.0581538, -0.0135958, 1.512, 21.3414631, 1.512, -97.9268341, 1.512, -95.9756088, 0.0581538, -0.0172885, 1.512, -6.8292685, 1.512, -153.7804871, 1.512, -46.2804871, 0.0581538, -0.008896, 1.512, -18.2926826, 1.512, -135.7317047, 1.512, 47.2560997, 0.0581538, 0, 1.512, 4.3292685, 1.512, -66.2804871, 1.512, 91.8292694, , , , , , , , , , , , , , , , , , , , , , 
0.0586731, -0.0856031, 1.5255, 30.8536587, 1.5255, -106.4024429, 1.5255, -101.8902435, 0.0586731, 0.0166171, 1.5255, -84.5731735, 1.5255, -114.146347, 1.5255, 15.4878054, 0.0586731, -0.0287022, 1.5255, -28.3536587, 1.5255, -170.0609741, 1.5255, 17.3780499, 0.0586731, 0.0041962, 1.5255, 67.68293, 1.5255, -134.4512177, 1.5255, -46.0365868, 0.0586731, -0.0152743, 1.5255, 15.6097565, 1.5255, -101.4634171, 1.5255, -95.4268341, 0.0586731, -0.0176242, 1.5255, -13.1097565, 1.5255, -156.7073212, 1.5255, -47.3780518, 0.0586731, -0.0078889, 1.5255, -15.060976, 1.5255, -137.7439117, 1.5255, 47.5609779, 0.0586731, 0, 1.5255, 2.3780489, 1.5255, -65.4878082, 1.5255, 108.9024429, , , , , , , , , , , , , , , , , , , , , , 
0.0591923, -0.0832532, 1.539, 41.4634171, 1.539, -118.3536606, 1.539, -89.2682953, 0.0591923, 0.0164492, 1.539, -71.3414688, 1.539, -61.0365868, 1.539, -13.3536587, 0.0591923, -0.026688, 1.539, -28.4146347, 1.539, -178.5975647, 1.539, 22.439024, 0.0591923, -0.0048676, 1.539, 50.2439041, 1.539, -144.9390259, 1.539, -43.2926826, 0.0591923, -0.0164492, 1.539, 10.1829271, 1.539, -103.5975647, 1.539, -95.1219559, 0.0591923, -0.0199741, 1.539, -17.6219521, 1.539, -172.1341553, 1.539, -49.4512215, 0.0591923, -0.0082246, 1.539, -10.5487804, 1.539, -137.3780518, 1.539, 48.5365868, 0.0591923, 0, 1.539, -6.4634147, 1.539, -142.9268341, 1.539, 80.4268341, , , , , , , , , , , , , , , , , , , , , , 
0.0597115, -0.0694896, 1.5525, 73.7195129, 1.5525, -124.8170776, 1.5525, -53.9634171, 0.0597115, 0.0164492, 1.5525, -26.2195129, 1.5525, -32.1951218, 1.5525, -13.0487804, 0.0597115, -0.0246738, 1.5525, -26.8902454, 1.5525, -201.4634247, 1.5525, 21.8902435, 0.0597115, -0.011078, 1.5525, -29.4512196, 1.5525, -204.3902435, 1.5525, -3.4756098, 0.0597115, -0.0169528, 1.5525, 5.4878049, 1.5525, -94.6341476, 1.5525, -99.9390259, 0.0597115, -0.0204776, 1.5525, -16.5853653, 1.5525, -194.4512177, 1.5525, -51.5243912, 0.0597115, -0.0082246, 1.5525, -0.3048781, 1.5525, -134.6341553, 1.5525, 53.4146347, 0.0597115, 0, 1.5525, 4.1463413, 1.5525, -287.9878235, 1.5525, -17.0731716, , , , , , , , , , , , , , , , , , , , , , 
0.0602308, -0.054551, 1.566, 79.6341476, 1.566, -104.0243912, 1.566, -38.2317085, 0.0602308, 0.0162814, 1.566, -27.8658543, 1.566, -129.2682953, 1.566, 1.7073171, 0.0602308, -0.024506, 1.566, -22.9268303, 1.566, -233.9024506, 1.566, 17.439024, 0.0602308, -0.0129244, 1.566, -69.6951218, 1.566, -243.23172, 1.566, 9.6951218, 0.0602308, -0.0149386, 1.566, 4.2073174, 1.566, -90.8536606, 1.566, -104.6951218, 0.0602308, -0.0176242, 1.566, -14.6341467, 1.566, -205.5487823, 1.566, -52.3170738, 0.0602308, -0.0068818, 1.566, 10.5487804, 1.566, -129.9390259, 1.566, 59.0853691, 0.0602308, 0, 1.566, 0.6707317, 1.566, -315.6707458, 1.566, -62.68293, , , , , , , , , , , , , , , , , , , , , , 
0.06075, -0.0480049, 1.5795, 49.2073174, 1.5795, -58.9634171, 1.5795, -35.3048782, 0.06075, 0.0142672, 1.5795, -39.5121956, 1.5795, -135.3048859, 1.5795, 31.0365868, 0.06075, -0.023331, 1.5795, -18.5365849, 1.5795, -257.1951294, 1.5795, 18.9024391, 0.06075, -0.0095674, 1.5795, -71.5243912, 1.5795, -238.8414764, 1.5795, 32.5, 0.06075, -0.0139315, 1.5795, 1.2195122, 1.5795, -87.3170776, 1.5795, -114.4512253, 0.06075, -0.0152743, 1.5795, -15.3658543, 1.5795, -225.6097565, 1.5795, -55.3658562, 0.06075, -0.0072175, 1.5795, 21.6463413, 1.5795, -133.3536682, 1.5795, 66.9512177, 0.06075, 0, 1.5795, -25.4878063, 1.5795, -213.8414612, 1.5795, -69.4512177, , , , , , , , , , , , , , , , , , , , , , 
0.0612692, -0.0475013, 1.593, 7.1341467, 1.593, -56.7682953, 1.593, -53.5975609, 0.0612692, 0.0132601, 1.593, -57.9878044, 1.593, -122.6219559, 1.593, 46.8292694, 0.0612692, -0.0250095, 1.593, -21.8292694, 1.593, -262.2561035, 1.593, 25.1829281, 0.0612692, -0.002182, 1.593, 5.9756098, 1.593, -120.6097565, 1.593, 16.5853653, 0.0612692, -0.0152743, 1.593, -2.0731707, 1.593, -89.5121994, 1.593, -123.4146347, 0.0612692, -0.0129244, 1.593, -17.8658543, 1.593, -240.2439117, 1.593, -54.9390259, 0.0612692, -0.0082246, 1.593, 29.3292694, 1.593, -132.9268341, 1.593, 73.2317123, 0.0612692, 0, 1.593, -4.2073174, 1.593, -71.8902435, 1.593, 39.3292694, , , , , , , , , , , , , , , , , , , , , , 
0.0617885, -0.047837, 1.6065, -45.9146347, 1.6065, -59.2682953, 1.6065, -91.5853653, 0.0617885, 0.0139315, 1.6065, -73.0487823, 1.6065, -112.86586, 1.6065, 56.4024391, 0.0617885, -0.0270237, 1.6065, -28.1707325, 1.6065, -230.9146423, 1.6065, 31.8292694, 0.0617885, 0.0045319, 1.6065, 25, 1.6065, -36.4024391, 1.6065, -54.3292694, 0.0617885, -0.01561, 1.6065, 0.2439024, 1.6065, -101.5853653, 1.6065, -132.3780518, 0.0617885, -0.0078889, 1.6065, -19.5121956, 1.6065, -213.2926941, 1.6065, -50, 0.0617885, -0.0085603, 1.6065, 35.2439041, 1.6065, -126.8292694, 1.6065, 77.0121994, 0.0617885, 0, 1.6065, 60.7317085, 1.6065, -30.7317085, 1.6065, 83.7804871, , , , , , , , , , , , , , , , , , , , , , 
0.0623077, -0.0454871, 1.62, -80.6097565, 1.62, -73.7804871, 1.62, -116.9512253, 0.0623077, 0.0146029, 1.62, -61.2804909, 1.62, -101.4024429, 1.62, 42.6829262, 0.0623077, -0.0271916, 1.62, -41.8292694, 1.62, -173.2926941, 1.62, 39.6951218, 0.0623077, 0.0045319, 1.62, 26.4024391, 1.62, -18.1097565, 1.62, -62.9268303, 0.0623077, -0.0135958, 1.62, 4.4512196, 1.62, -110.6097565, 1.62, -137.3170776, 0.0623077, -0.0031891, 1.62, -24.1463413, 1.62, -156.8902435, 1.62, -48.9024391, 0.0623077, -0.0095674, 1.62, 32.0121956, 1.62, -131.2804871, 1.62, 75.5487823, 0.0623077, 0, 1.62, 55.9756126, 1.62, -11.5243902, 1.62, 60.7926826, , , , , , , , , , , , , , , , , , , , , , 
0.0628269, -0.0392767, 1.6335, -35.1829262, 1.6335, -77.1341476, 1.6335, -104.2073212, 0.0628269, 0.0159457, 1.6335, -51.8902435, 1.6335, -84.4512253, 1.6335, 31.7682934, 0.0628269, -0.0260166, 1.6335, -49.5121956, 1.6335, -125.2439041, 1.6335, 40.2439041, 0.0628269, 0.0005035, 1.6335, 33.1707306, 1.6335, -48.6585388, 1.6335, -26.5853672, 0.0628269, -0.0105745, 1.6335, 4.8170733, 1.6335, -116.7073212, 1.6335, -134.5121918, 0.0628269, -0.005539, 1.6335, -26.4024391, 1.6335, -97.1341476, 1.6335, -48.1707344, 0.0628269, -0.008896, 1.6335, 26.6463413, 1.6335, -144.8170776, 1.6335, 69.6951218, 0.0628269, 0, 1.6335, 7.9268293, 1.6335, -39.2073174, 1.6335, 40.3048782, , , , , , , , , , , , , , , , , , , , , , 
0.0633462, -0.0330663, 1.647, 35.3658562, 1.647, -59.9390259, 1.647, -66.7682953, 0.0633462, 0.0193027, 1.647, -62.3780518, 1.647, -46.5243912, 1.647, 20.9756107, 0.0633462, -0.0251774, 1.647, -50.6097565, 1.647, -105.6707306, 1.647, 34.4512215, 0.0633462, -0.002182, 1.647, 26.9512196, 1.647, -78.5365906, 1.647, -5.3658538, 0.0633462, -0.0105745, 1.647, 2.3780489, 1.647, -111.7073212, 1.647, -124.146347, 0.0633462, -0.0099031, 1.647, -16.6463413, 1.647, -55.3658562, 1.647, -45.4268303, 0.0633462, -0.0085603, 1.647, 25.1829281, 1.647, -157.1341553, 1.647, 59.9390259, 0.0633462, 0, 1.647, -17.8658543, 1.647, -92.9268341, 1.647, 31.7073174, , , , , , , , , , , , , , , , , , , , , , 
0.0638654, -0.0287022, 1.6605, 64.7560959, 1.6605, -36.0975609, 1.6605, -45.1219521, 0.0638654, 0.0219883, 1.6605, -67.8658524, 1.6605, -42.8658562, 1.6605, 7.8658538, 0.0638654, -0.0251774, 1.6605, -57.3780518, 1.6605, -73.7195129, 1.6605, 15.6097565, 0.0638654, -0.0018463, 1.6605, 4.8170733, 1.6605, -125.9756165, 1.6605, -9.0243902, 0.0638654, -0.0135958, 1.6605, 2.9878049, 1.6605, -92.5609741, 1.6605, -111.3414688, 0.0638654, -0.0135958, 1.6605, 3.7804878, 1.6605, -45.7926826, 1.6605, -45.7317085, 0.0638654, -0.0078889, 1.6605, 27.8658543, 1.6605, -152.5, 1.6605, 49.2073174, 0.0638654, 0, 1.6605, 4.9390244, 1.6605, -122.1341476, 1.6605, 26.8292694, , , , , , , , , , , , , , , , , , , , , , 
0.0643846, -0.0256809, 1.674, 49.9390259, 1.674, -54.7560997, 1.674, -51.8902435, 0.0643846, 0.0229953, 1.674, -57.8658562, 1.674, -86.2195129, 1.674, -5.1219511, 0.0643846, -0.0250095, 1.674, -58.3536606, 1.674, -58.5975609, 1.674, -5.9146342, 0.0643846, -0.0028534, 1.674, -19.6341476, 1.674, -186.8292694, 1.674, -16.7073174, 0.0643846, -0.0146029, 1.674, -1.7682927, 1.674, -67.8658524, 1.674, -100.4268341, 0.0643846, -0.0193027, 1.674, 20.6097565, 1.674, -61.9512215, 1.674, -41.7073174, 0.0643846, -0.0082246, 1.674, 32.4390259, 1.674, -132.3780518, 1.674, 41.5853653, 0.0643846, 0, 1.674, 23.2317085, 1.674, -157.5, 1.674, 21.4634151, , , , , , , , , , , , , , , , , , , , , , 
0.0649038, -0.023331, 1.6875, 16.6463413, 1.6875, -92.3170776, 1.6875, -68.4146347, 0.0649038, 0.0226596, 1.6875, -41.2195129, 1.6875, -122.7439041, 1.6875, -7.5, 0.0649038, -0.0253452, 1.6875, -49.0853653, 1.6875, -51.6463432, 1.6875, -15.3658543, 0.0649038, -0.0077211, 1.6875, -36.5853653, 1.6875, -224.9390259, 1.6875, -14.0243902, 0.0649038, -0.0137636, 1.6875, -5.8536587, 1.6875, -56.0975609, 1.6875, -90.3048782, 0.0649038, -0.0240024, 1.6875, 18.2317085, 1.6875, -66.0975647, 1.6875, -36.7682953, 0.0649038, -0.0102388, 1.6875, 34.3902435, 1.6875, -110.18293, 1.6875, 38.5365868, 0.0649038, 0, 1.6875, 18.5975609, 1.6875, -223.9024506, 1.6875, 9.5121956, , , , , , , , , , , , , , , , , , , , , , 
0.0654231, -0.0216526, 1.701, 2.1341465, 1.701, -114.8780518, 1.701, -73.7195129, 0.0654231, 0.023331, 1.701, -30.1219521, 1.701, -142.6829376, 1.701, -1.9512196, 0.0654231, -0.0250095, 1.701, -23.7195129, 1.701, -67.1951218, 1.701, -8.3536587, 0.0654231, -0.0124208, 1.701, -36.9512215, 1.701, -217.1341553, 1.701, -7.2560978, 0.0654231, -0.0135958, 1.701, -10.3658543, 1.701, -51.9512215, 1.701, -80.6097565, 0.0654231, -0.0250095, 1.701, -6.6463418, 1.701, -46.7682953, 1.701, -26.8902454, 0.0654231, -0.0115816, 1.701, 36.2804871, 1.701, -87.68293, 1.701, 39.5121956, 0.0654231, 0, 1.701, 1.8292683, 1.701, -242.4390259, 1.701, 3.4756098, , , , , , , , , , , , , , , , , , , , , , 
0.0659423, -0.0199741, 1.7145, -11.8292685, 1.7145, -141.7682953, 1.7145, -74.0243912, 0.0659423, 0.0246738, 1.7145, -22.6829281, 1.7145, -153.9634247, 1.7145, 3.0487804, 0.0659423, -0.0246738, 1.7145, 14.7560978, 1.7145, -107.3170776, 1.7145, 9.0853662, 0.0659423, -0.0125887, 1.7145, -21.5243912, 1.7145, -166.2804871, 1.7145, -7.5609756, 0.0659423, -0.0119173, 1.7145, -14.2682934, 1.7145, -47.7439041, 1.7145, -76.3414688, 0.0659423, -0.0240024, 1.7145, -22.560976, 1.7145, -49.0853653, 1.7145, -19.0853672, 0.0659423, -0.0095674, 1.7145, 39.7560997, 1.7145, -67.1951218, 1.7145, 42.5, 0.0659423, 0, 1.7145, 4.390244, 1.7145, -181.8902435, 1.7145, 6.1585369, , , , , , , , , , , , , , , , , , , , , , 
0.0664615, -0.0179599, 1.728, -5.2439027, 1.728, -137.8048859, 1.728, -66.7682953, 0.0664615, 0.0253452, 1.728, -22.560976, 1.728, -149.9390259, 1.728, 5.4268293, 0.0664615, -0.0246738, 1.728, 25.1829281, 1.728, -119.3902435, 1.728, 33.5975609, 0.0664615, -0.0102388, 1.728, 1.402439, 1.728, -102.5, 1.728, -14.9390249, 0.0664615, -0.0109102, 1.728, -24.6951218, 1.728, -37.4390259, 1.728, -70.4878082, 0.0664615, -0.0204776, 1.728, -46.6463432, 1.728, -65.5487823, 1.728, -8.4146347, 0.0664615, -0.0072175, 1.728, 40.7926826, 1.728, -59.6341476, 1.728, 43.6585388, 0.0664615, 0, 1.728, 5.670732, 1.728, -137.2561035, 1.728, 9.6341467, , , , , , , , , , , , , , , , , , , , , , 
0.0669808, -0.0179599, 1.7415, 4.3292685, 1.7415, -125.1219559, 1.7415, -58.4756126, 0.0669808, 0.0246738, 1.7415, -20.9146347, 1.7415, -127.5, 1.7415, 5.4268293, 0.0669808, -0.0246738, 1.7415, -3.7195122, 1.7415, -88.5975647, 1.7415, 59.6341476, 0.0669808, -0.0095674, 1.7415, 14.5121956, 1.7415, -55.4878044, 1.7415, -17.3780499, 0.0669808, -0.0099031, 1.7415, -32.4390259, 1.7415, -30.1829281, 1.7415, -67.5609741, 0.0669808, -0.0186313, 1.7415, -54.7560997, 1.7415, -75.9756088, 1.7415, -13.2926836, 0.0669808, -0.0078889, 1.7415, 40.0609779, 1.7415, -49.3292694, 1.7415, 44.4512215, 0.0669808, 0, 1.7415, 2.7439024, 1.7415, -49.5731735, 1.7415, 15.4878054, , , , , , , , , , , , , , , , , , , , , , 
0.0675, -0.0182956, 1.755, 8.9024391, 1.755, -96.2804871, 1.755, -50.0609779, 0.0675, 0.0246738, 1.755, -21.3414631, 1.755, -117.0731735, 1.755, 4.4512196, 0.0675, -0.0258488, 1.755, -28.9634151, 1.755, -79.6341476, 1.755, 64.4512177, 0.0675, -0.0104067, 1.755, 17.439024, 1.755, -37.3780479, 1.755, -18.4756107, 0.0675, -0.0115816, 1.755, -35.5487823, 1.755, -27.3780499, 1.755, -66.4634171, 0.0675, -0.0196384, 1.755, -47.9878044, 1.755, -77.4390259, 1.755, -23.1707325, 0.0675, -0.008896, 1.755, 35.6097565, 1.755, -46.5853653, 1.755, 43.9024391, 0.0675, -0.0015106, 1.755, 6.3414636, 1.755, -0.1219512, 1.755, 19.6951218, , , , , , , , , , , , , , , , , , , , , , 
0.0680192, -0.0172885, 1.7685, 8.4756098, 1.7685, -59.0853691, 1.7685, -41.8902435, 0.0680192, 0.0253452, 1.7685, -28.7195129, 1.7685, -93.9634171, 1.7685, 1.1585366, 0.0680192, -0.0261845, 1.7685, -27.560976, 1.7685, -98.0487823, 1.7685, 49.5121956, 0.0680192, -0.0102388, 1.7685, 19.6951218, 1.7685, -12.6219511, 1.7685, -21.7073174, 0.0680192, -0.0146029, 1.7685, -34.3292694, 1.7685, -24.7560978, 1.7685, -65.0609741, 0.0680192, -0.0216526, 1.7685, -40.5487823, 1.7685, -97.8658524, 1.7685, -31.2195129, 0.0680192, -0.008896, 1.7685, 29.6951218, 1.7685, -51.6463432, 1.7685, 43.1707344, 0.0680192, 0.0005035, 1.7685, 17.0731716, 1.7685, 17.439024, 1.7685, 20.6097565, , , , , , , , , , , , , , , , , , , , , , 
0.0685385, -0.0179599, 1.782, 7.6219516, 1.782, -26.7073174, 1.782, -34.5731697, 0.0685385, 0.0263523, 1.782, -39.3292694, 1.782, -55.3658562, 1.782, -1.3414634, 0.0685385, -0.0273594, 1.782, -29.0243912, 1.782, -115.3048782, 1.782, 33.1707306, 0.0685385, -0.0077211, 1.782, 19.0853672, 1.782, -14.2073174, 1.782, -16.9512196, 0.0685385, -0.0171206, 1.782, -26.4024391, 1.782, -22.9878063, 1.782, -63.2926826, 0.0685385, -0.0213169, 1.782, -30.4268303, 1.782, -115.3048782, 1.782, -41.7073174, 0.0685385, -0.0073854, 1.782, 25.1219521, 1.782, -59.0853691, 1.782, 43.1707344, 0.0685385, 0.0018463, 1.782, 14.2682934, 1.782, -4.2073174, 1.782, 13.6585369, , , , , , , , , , , , , , , , , , , , , , 
0.0690577, -0.018967, 1.7955, 14.6951227, 1.7955, -5.8536587, 1.7955, -28.5365868, 0.0690577, 0.0258488, 1.7955, -49.2682953, 1.7955, -23.5975609, 1.7955, -2.9268293, 0.0690577, -0.0276951, 1.7955, -41.6463432, 1.7955, -139.4512177, 1.7955, 13.6585369, 0.0690577, -0.0073854, 1.7955, 12.6829271, 1.7955, -45.2439041, 1.7955, -7.0121951, 0.0690577, -0.0179599, 1.7955, -13.9024391, 1.7955, -26.0365868, 1.7955, -62.3780518, 0.0690577, -0.0196384, 1.7955, -9.8780489, 1.7955, -129.2682953, 1.7955, -54.0853653, 0.0690577, -0.0075532, 1.7955, 20.3658543, 1.7955, -62.3780518, 1.7955, 43.7804871, 0.0690577, 0.0011749, 1.7955, -3.8414636, 1.7955, -44.7560997, 1.7955, 5, , , , , , , , , , , , , , , , , , , , , , 
0.0695769, -0.0179599, 1.809, 26.280489, 1.809, 11.5853662, 1.809, -25.1829281, 0.0695769, 0.0246738, 1.809, -47.6829262, 1.809, -8.5975609, 1.809, -3.7195122, 0.0695769, -0.0276951, 1.809, -48.7195129, 1.809, -164.7561035, 1.809, -11.8292685, 0.0695769, -0.0105745, 1.809, 3.2926829, 1.809, -82.0121994, 1.809, -2.9878049, 0.0695769, -0.0157778, 1.809, -4.4512196, 1.809, -36.8902435, 1.809, -62.4390259, 0.0695769, -0.0182956, 1.809, 15.8536587, 1.809, -146.4024353, 1.809, -62.1951218, 0.0695769, -0.0075532, 1.809, 14.0853662, 1.809, -60.18293, 1.809, 43.0487823, 0.0695769, 0.0016785, 1.809, -11.7073174, 1.809, -80.3658524, 1.809, 4.2073174, , , , , , , , , , , , , , , , , , , , , , 
0.0700962, -0.0169528, 1.8225, 31.0365868, 1.8225, 21.3414631, 1.8225, -25.4878063, 0.0700962, 0.0240024, 1.8225, -37.9878044, 1.8225, -4.7560978, 1.8225, -2.7439024, 0.0700962, -0.0273594, 1.8225, -39.7560997, 1.8225, -184.6341553, 1.8225, -36.5243912, 0.0700962, -0.0135958, 1.8225, -0.0609756, 1.8225, -93.4756088, 1.8225, -0.7926829, 0.0700962, -0.0125887, 1.8225, -0.4268293, 1.8225, -50.6097565, 1.8225, -60.7317085, 0.0700962, -0.018967, 1.8225, 35.4878044, 1.8225, -142.6829376, 1.8225, -62.0121956, 0.0700962, -0.0057069, 1.8225, 5.9756098, 1.8225, -55.9146347, 1.8225, 40.6097565, 0.0700962, 0.0035248, 1.8225, -6.8292685, 1.8225, -95.2439041, 1.8225, 6.3414636, , , , , , , , , , , , , , , , , , , , , , 
0.0706154, -0.0182956, 1.836, 29.4512196, 1.836, 21.8292694, 1.836, -26.6463413, 0.0706154, 0.0229953, 1.836, -30.7317085, 1.836, -10.7926836, 1.836, -0.1829268, 0.0706154, -0.0276951, 1.836, -19.2682934, 1.836, -205, 1.836, -58.3536606, 0.0706154, -0.0135958, 1.836, 2.1341465, 1.836, -77.8658524, 1.836, -1.097561, 0.0706154, -0.0099031, 1.836, 0.4878049, 1.836, -62.8658562, 1.836, -56.6463432, 0.0706154, -0.0206455, 1.836, 51.0365868, 1.836, -125.18293, 1.836, -51.4024391, 0.0706154, -0.0058747, 1.836, -1.1585366, 1.836, -53.4756126, 1.836, 38.3536606, 0.0706154, 0.0025177, 1.836, -8.719512, 1.836, -73.1097565, 1.836, 5.1829271, , , , , , , , , , , , , , , , , , , , , , 
0.0711346, -0.0203098, 1.8495, 30, 1.8495, 19.8780499, 1.8495, -27.3170738, 0.0711346, 0.0223239, 1.8495, -32.6829262, 1.8495, -19.0853672, 1.8495, 0.0609756, 0.0711346, -0.0273594, 1.8495, -9.0853662, 1.8495, -207.6829376, 1.8495, -67.9268341, 0.0711346, -0.0151064, 1.8495, 12.0121956, 1.8495, -38.2317085, 1.8495, -3.8414636, 0.0711346, -0.0092317, 1.8495, 0.8536586, 1.8495, -64.9390259, 1.8495, -50.9146347, 0.0711346, -0.0250095, 1.8495, 66.8902435, 1.8495, -126.8292694, 1.8495, -39.2073174, 0.0711346, -0.0075532, 1.8495, -8.2926826, 1.8495, -54.5731735, 1.8495, 36.7682953, 0.0711346, -0.0035248, 1.8495, -6.7682929, 1.8495, -20.060976, 1.8495, 4.1463413, , , , , , , , , , , , , , , , , , , , , , 
0.0716538, -0.0216526, 1.863, 31.7682934, 1.863, 12.0731707, 1.863, -27.8658543, 0.0716538, 0.0223239, 1.863, -38.0487823, 1.863, -18.4146347, 1.863, -2.0731707, 0.0716538, -0.0280308, 1.863, -5.3658538, 1.863, -178.7804871, 1.863, -80.9146347, 0.0716538, -0.0162814, 1.863, 23.1097565, 1.863, -2.6829269, 1.863, -7.3170733, 0.0716538, -0.0078889, 1.863, 6.3414636, 1.863, -58.1707344, 1.863, -45.1829262, 0.0716538, -0.0313878, 1.863, 83.5975647, 1.863, -127.7439041, 1.863, -35.1219521, 0.0716538, -0.0082246, 1.863, -17.1341476, 1.863, -55.7317085, 1.863, 34.8780479, 0.0716538, -0.008896, 1.863, -7.5609756, 1.863, 20.8536587, 1.863, 5.5487804, , , , , , , , , , , , , , , , , , , , , , 
0.0721731, -0.0209812, 1.8765, 31.0975609, 1.8765, -2.3170731, 1.8765, -26.1585369, 0.0721731, 0.0219883, 1.8765, -43.2926826, 1.8765, -16.0365849, 1.8765, -4.0853658, 0.0721731, -0.0285344, 1.8765, -22.1341476, 1.8765, -133.0487823, 1.8765, -89.2682953, 0.0721731, -0.01561, 1.8765, 31.6463413, 1.8765, 15.060976, 1.8765, -5.7926831, 0.0721731, -0.0072175, 1.8765, 9.5731707, 1.8765, -53.2926826, 1.8765, -42.8658562, 0.0721731, -0.0347448, 1.8765, 91.5243912, 1.8765, -124.4512253, 1.8765, -37.2560997, 0.0721731, -0.0077211, 1.8765, -22.8048782, 1.8765, -52.7439041, 1.8765, 32.7439041, 0.0721731, -0.0099031, 1.8765, -10.3048782, 1.8765, 31.0365868, 1.8765, 6.9512196, , , , , , , , , , , , , , , , , , , , , , 
0.0726923, -0.0203098, 1.89, 26.0975609, 1.89, -13.3536587, 1.89, -23.1097565, 0.0726923, 0.0199741, 1.89, -43.4146347, 1.89, -13.5975609, 1.89, -6.1585369, 0.0726923, -0.0290379, 1.89, -46.0975609, 1.89, -99.8170776, 1.89, -101.0975647, 0.0726923, -0.0142672, 1.89, 31.280489, 1.89, 14.9390249, 1.89, -4.4512196, 0.0726923, -0.0075532, 1.89, 17.6219521, 1.89, -39.9390259, 1.89, -38.5975609, 0.0726923, -0.0350805, 1.89, 108.4146347, 1.89, -102.6219559, 1.89, -49.4512215, 0.0726923, -0.0068818, 1.89, -25.4268303, 1.89, -44.2682953, 1.89, 31.5243912, 0.0726923, -0.0085603, 1.89, -12.2560978, 1.89, 30.7926846, 1.89, 10, , , , , , , , , , , , , , , , , , , , , , 
0.0732115, -0.0196384, 1.9035, 22.7439022, 1.9035, -16.4024391, 1.9035, -18.8414631, 0.0732115, 0.0172885, 1.9035, -42.2560997, 1.9035, -15.6707325, 1.9035, -7.3170733, 0.0732115, -0.0303807, 1.9035, -67.0121994, 1.9035, -80.3658524, 1.9035, -115.7926865, 0.0732115, -0.0142672, 1.9035, 26.7073174, 1.9035, 7.9268293, 1.9035, -4.5731707, 0.0732115, -0.0090639, 1.9035, 26.3414631, 1.9035, -25.7317085, 1.9035, -34.8780479, 0.0732115, -0.0350805, 1.9035, 122.5, 1.9035, -58.6585388, 1.9035, -59.6341476, 0.0732115, -0.0077211, 1.9035, -28.780489, 1.9035, -35.1219521, 1.9035, 30.8536587, 0.0732115, -0.0063783, 1.9035, -8.780488, 1.9035, 22.8048782, 1.9035, 8.3536587, , , , , , , , , , , , , , , , , , , , , , 
0.0737308, -0.0203098, 1.917, 24.2073174, 1.917, -11.5853662, 1.917, -15.6097565, 0.0737308, 0.0172885, 1.917, -39.0853653, 1.917, -15.060976, 1.917, -7.4390244, 0.0737308, -0.0313878, 1.917, -82.9268341, 1.917, -44.5121956, 1.917, -122.7439041, 0.0737308, -0.0142672, 1.917, 22.439024, 1.917, -6.5243902, 1.917, -4.2073174, 0.0737308, -0.0082246, 1.917, 32.0121956, 1.917, -12.1951218, 1.917, -31.6463413, 0.0737308, -0.0332341, 1.917, 129.5731812, 1.917, -10.7926836, 1.917, -63.0487823, 0.0737308, -0.0087282, 1.917, -32.9878044, 1.917, -28.1707325, 1.917, 30, 0.0737308, -0.0041962, 1.917, -6.3414636, 1.917, 6.3414636, 1.917, 5.0609756, , , , , , , , , , , , , , , , , , , , , , 
0.07425, -0.0216526, 1.9305, 27.8048782, 1.9305, -6.5243902, 1.9305, -13.9634151, 0.07425, 0.0182956, 1.9305, -35.4268303, 1.9305, -13.0487804, 1.9305, -6.7073174, 0.07425, -0.0303807, 1.9305, -99.4512253, 1.9305, 12.8048782, 1.9305, -119.0243912, 0.07425, -0.0135958, 1.9305, 21.0975609, 1.9305, -12.7439032, 1.9305, -3.5365853, 0.07425, -0.0068818, 1.9305, 40.4878044, 1.9305, 0.4268293, 1.9305, -24.5731716, 0.07425, -0.0317235, 1.9305, 133.0487823, 1.9305, 25.2439022, 1.9305, -62.7439041, 0.07425, -0.0085603, 1.9305, -36.8902435, 1.9305, -23.2926826, 1.9305, 27.6829281, 0.07425, -0.0018463, 1.9305, -11.341464, 1.9305, -9.1463413, 1.9305, 3.9634147, , , , , , , , , , , , , , , , , , , , , , 
0.0747692, -0.0226596, 1.944, 27.5, 1.944, 0.6707317, 1.944, -13.4756098, 0.0747692, 0.0176242, 1.944, -28.1097565, 1.944, -10.1219511, 1.944, -5.5487804, 0.0747692, -0.0320592, 1.944, -104.8170776, 1.944, 50.1829262, 1.944, -120.4878082, 0.0747692, -0.0124208, 1.944, 18.8414631, 1.944, -23.2926826, 1.944, -2.9878049, 0.0747692, -0.0057069, 1.944, 51.2195129, 1.944, 8.6585369, 1.944, -15.1829271, 0.0747692, -0.0310521, 1.944, 140.6097565, 1.944, 49.5121956, 1.944, -59.2682953, 0.0747692, -0.0085603, 1.944, 0, 1.944, 0, 1.944, 0, 0.0747692, -0.0005035, 1.944, -12.2560978, 1.944, -13.9634151, 1.944, 4.5121951, , , , , , , , , , , , , , , , , , , , , , 
0.0752885, -0.0223239, 1.9575, 20.4268303, 1.9575, 3.4756098, 1.9575, -12.8048782, 0.0752885, 0.0159457, 1.9575, -26.0365868, 1.9575, -8.2317076, 1.9575, -4.7560978, 0.0752885, -0.033402, 1.9575, -89.146347, 1.9575, 41.5853653, 1.9575, -141.646347, 0.0752885, -0.0119173, 1.9575, 17.0121956, 1.9575, -22.439024, 1.9575, -4.0853658, 0.0752885, -0.0058747, 1.9575, 60.3048782, 1.9575, 7.7439027, 1.9575, -6.890244, 0.0752885, -0.0271916, 1.9575, 155.1219482, 1.9575, 54.3902435, 1.9575, -50.6707344, 0.0752885, -0.0090639, 1.9575, -44.2682953, 1.9575, -7.4390244, 1.9575, 23.3536587, 0.0752885, -0.0001678, 1.9575, -10.4878054, 1.9575, -9.6951218, 1.9575, 3.8414636, , , , , , , , , , , , , , , , , , , , , , 
0.0758077, -0.0218204, 1.971, 14.5121956, 1.971, 5.5487804, 1.971, -10.8536587, 0.0758077, 0.0146029, 1.971, -27.2560978, 1.971, -1.4634147, 1.971, -3.6585367, 0.0758077, -0.0323949, 1.971, -62.1341476, 1.971, 11.4024391, 1.971, -172.1341553, 0.0758077, -0.0139315, 1.971, 17.6829281, 1.971, -15.2439032, 1.971, -5.2439027, 0.0758077, -0.0045319, 1.971, 64.8170776, 1.971, 7.1951222, 1.971, 2.195122, 0.0758077, -0.0243381, 1.971, 172.86586, 1.971, 36.8292694, 1.971, -42.1951218, 0.0758077, -0.0095674, 1.971, -50.6707344, 1.971, 7.5609756, 1.971, 20.4268303, 0.0758077, -0.002182, 1.971, -8.2317076, 1.971, -0.1829268, 1.971, 3.6585367, , , , , , , , , , , , , , , , , , , , , , 
0.0763269, -0.0216526, 1.9845, 11.8902445, 1.9845, 8.4146347, 1.9845, -7.8048782, 0.0763269, 0.0159457, 1.9845, -26.6463413, 1.9845, 2.5609756, 1.9845, -3.1097562, 0.0763269, -0.0318914, 1.9845, -35.7926826, 1.9845, -31.6463413, 1.9845, -190.9146423, 0.0763269, -0.0146029, 1.9845, 19.0243912, 1.9845, -3.0487804, 1.9845, -7.3780489, 0.0763269, -0.0035248, 1.9845, 66.6463394, 1.9845, 10.3658543, 1.9845, 12.3780489, 0.0763269, -0.026688, 1.9845, 177.4390259, 1.9845, 22.7439022, 1.9845, -37.4390259, 0.0763269, -0.0092317, 1.9845, 0, 1.9845, 0, 1.9845, 0, 0.0763269, -0.0038605, 1.9845, -6.280488, 1.9845, 10.4878054, 1.9845, 3.7804878, , , , , , , , , , , , , , , , , , , , , , 
0.0768462, -0.0206455, 1.998, 11.4024391, 1.998, 13.2317076, 1.998, -4.8170733, 0.0768462, 0.0166171, 1.998, -22.2560978, 1.998, 7.1341467, 1.998, -3.4756098, 0.0768462, -0.0330663, 1.998, -15.5487804, 1.998, -67.1951218, 1.998, -181.4634247, 0.0768462, -0.0112459, 1.998, 19.6341476, 1.998, 5.7317076, 1.998, -9.8170738, 0.0768462, -0.005539, 1.998, 70.4878082, 1.998, 16.6463413, 1.998, 22.3780499, 0.0768462, -0.0323949, 1.998, 162.3170776, 1.998, 14.0243902, 1.998, -27.0121956, 0.0768462, -0.0102388, 1.998, -64.7560959, 1.998, 15.9146347, 1.998, 9.3292685, 0.0768462, -0.0038605, 1.998, -3.5975611, 1.998, 14.3902445, 1.998, 3.2317073, , , , , , , , , , , , , , , , , , , , , , 
0.0773654, -0.0198062, 2.0115, 11.0975609, 2.0115, 15.9146347, 2.0115, -3.3536587, 0.0773654, 0.01561, 2.0115, -19.5121956, 2.0115, 8.2926826, 2.0115, -5.609756, 0.0773654, -0.0307164, 2.0115, -26.4634151, 2.0115, -44.3902435, 2.0115, -135.8536682, 0.0773654, -0.010071, 2.0115, 17.439024, 2.0115, 3.2317073, 2.0115, -10.060976, 0.0773654, -0.0062104, 2.0115, 66.6463394, 2.0115, 31.2195129, 2.0115, 25.6707325, 0.0773654, -0.0374304, 2.0115, 137.3780518, 2.0115, 2.804878, 2.0115, -17.8658543, 0.0773654, -0.0105745, 2.0115, -71.2195129, 2.0115, 23.4146347, 2.0115, 4.1463413, 0.0773654, -0.0048676, 2.0115, -4.0243902, 2.0115, 12.5, 2.0115, 2.0121951, , , , , , , , , , , , , , , , , , , , , , 
0.0778846, -0.0196384, 2.025, 9.6951218, 2.025, 15.2439032, 2.025, -0.6707317, 0.0778846, 0.0146029, 2.025, -14.6341467, 2.025, 7.3780489, 2.025, -7.9878049, 0.0778846, -0.0260166, 2.025, -39.7560997, 2.025, -14.7560978, 2.025, -104.6951218, 0.0778846, -0.011078, 2.025, 15.5487804, 2.025, -3.1707318, 2.025, -10, 0.0778846, -0.0065461, 2.025, 54.7560997, 2.025, 37.0731697, 2.025, 23.2317085, 0.0778846, -0.0382696, 2.025, 123.6585388, 2.025, 22.0121956, 2.025, -17.0121956, 0.0778846, -0.0095674, 2.025, -70.6707306, 2.025, 27.2560978, 2.025, -2.3780489, 0.0778846, -0.0075532, 2.025, -4.7560978, 2.025, 10.4268293, 2.025, 1.7073171, , , , , , , , , , , , , , , , , , , , , , 
0.0784038, -0.0206455, 2.0385, 9.9390249, 2.0385, 11.5853662, 2.0385, 1.097561, 0.0784038, 0.0152743, 2.0385, -9.7560978, 2.0385, 4.7560978, 2.0385, -8.3536587, 0.0784038, -0.0223239, 2.0385, -39.2682953, 2.0385, -2.2560976, 2.0385, -103.9024429, 0.0784038, -0.0139315, 2.0385, 13.4146347, 2.0385, -8.2317076, 2.0385, -10.9146347, 0.0784038, -0.0068818, 2.0385, 49.8170738, 2.0385, 33.2926826, 2.0385, 21.8292694, 0.0784038, -0.0350805, 2.0385, 107.68293, 2.0385, 39.1463432, 2.0385, -16.5243912, 0.0784038, -0.0082246, 2.0385, -63.6585388, 2.0385, 30.5487804, 2.0385, -5.670732, 0.0784038, -0.0090639, 2.0385, -2.9878049, 2.0385, 3.7804878, 2.0385, 1.7073171, , , , , , , , , , , , , , , , , , , , , , 
0.0789231, -0.0234989, 2.052, 6.4634147, 2.052, 7.2560978, 2.052, 1.5243902, 0.0789231, 0.0172885, 2.052, -6.7682929, 2.052, 1.2195122, 2.052, -7.2560978, 0.0789231, -0.0199741, 2.052, -47.6829262, 2.052, 62.0121956, 2.052, -95, 0.0789231, -0.01561, 2.052, 12.0731707, 2.052, -8.4146347, 2.052, -11.4634151, 0.0789231, -0.0102388, 2.052, 40.3658562, 2.052, 25.4268303, 2.052, 20.3658543, 0.0789231, -0.0270237, 2.052, 97.0731735, 2.052, 71.4634171, 2.052, -17.560976, 0.0789231, -0.0082246, 2.052, -55.7926826, 2.052, 26.6463413, 2.052, -5.3048782, 0.0789231, -0.0075532, 2.052, -1.097561, 2.052, -1.7073171, 2.052, 0.7926829, , , , , , , , , , , , , , , , , , , , , , 
0.0794423, -0.0243381, 2.0655, 1.4634147, 2.0655, 5.3658538, 2.0655, 1.0365853, 0.0794423, 0.0179599, 2.0655, -3.7195122, 2.0655, -4.2073174, 2.0655, -6.8292685, 0.0794423, -0.018967, 2.0655, -40.7317085, 2.0655, 72.3170776, 2.0655, -71.8292694, 0.0794423, -0.0149386, 2.0655, 11.219512, 2.0655, -5, 2.0655, -12.9878054, 0.0794423, -0.0117494, 2.0655, 33.9634171, 2.0655, 13.841464, 2.0655, 18.2926826, 0.0794423, -0.0135958, 2.0655, 66.9512177, 2.0655, 110.4268341, 2.0655, -10.1829271, 0.0794423, -0.0083925, 2.0655, -51.4024391, 2.0655, 22.439024, 2.0655, -4.6341462, 0.0794423, -0.0062104, 2.0655, -0.1219512, 2.0655, 0.3048781, 2.0655, 0.3658537, , , , , , , , , , , , , , , , , , , , , , 
0.0799615, -0.0240024, 2.079, -2.5, 2.079, 2.7439024, 2.079, 0.1829268, 0.0799615, 0.0162814, 2.079, -1.7073171, 2.079, -3.7804878, 2.079, -5.8536587, 0.0799615, -0.0159457, 2.079, -12.6829271, 2.079, 60.7926826, 2.079, -18.8414631, 0.0799615, -0.0130922, 2.079, 12.1951218, 2.079, 0.7926829, 2.079, -14.8780489, 0.0799615, -0.0090639, 2.079, 29.5121956, 2.079, 10.4268293, 2.079, 12.0731707, 0.0799615, 0.0011749, 2.079, 10.3658543, 2.079, 101.7682953, 2.079, 5, 0.0799615, -0.0102388, 2.079, -41.0975609, 2.079, 25.060976, 2.079, -3.0487804, 0.0799615, -0.0057069, 2.079, 2.195122, 2.079, 6.9512196, 2.079, 0.6097561, , , , , , , , , , , , , , , , , , , , , , 
0.0804808, -0.0243381, 2.0925, -3.4146342, 2.0925, 9.5731707, 2.0925, -0.9146342, 0.0804808, 0.0152743, 2.0925, -1.8292683, 2.0925, -0.8536586, 2.0925, -4.5731707, 0.0804808, -0.0137636, 2.0925, -13.1097565, 2.0925, 62.68293, 2.0925, 54.6341476, 0.0804808, -0.0105745, 2.0925, 13.2926836, 2.0925, 0.6097561, 2.0925, -13.9024391, 0.0804808, -0.0068818, 2.0925, 23.2317085, 2.0925, 18.7195129, 2.0925, 6.5853658, 0.0804808, 0.0011749, 2.0925, -43.7804871, 2.0925, 47.2560997, 2.0925, 21.7682934, 0.0804808, -0.0109102, 2.0925, -32.9268303, 2.0925, 31.0975609, 2.0925, 0.1219512, 0.0804808, -0.0043641, 2.0925, 2.4390244, 2.0925, 12.6219511, 2.0925, 0.9146342, , , , , , , , , , , , , , , , , , , , , , 
0.081, -0.0256809, 2.106, -2.6219513, 2.106, 19.0853672, 2.106, -1.4634147, 0.081, 0.0146029, 2.106, -2.5, 2.106, 4.9390244, 2.106, -1.097561, 0.081, -0.0137636, 2.106, -1.2195122, 2.106, 28.3536587, 2.106, 61.4634171, 0.081, -0.008896, 2.106, 14.3292685, 2.106, -1.5243902, 2.106, -12.1951218, 0.081, -0.0062104, 2.106, 25.4268303, 2.106, 0.9146342, 2.106, 1.8292683, 0.081, -0.0119173, 2.106, -45.9756126, 2.106, 25.4878063, 2.106, 21.5853672, 0.081, -0.011078, 2.106, -32.8658562, 2.106, 10.7926836, 2.106, 4.9390244, 0.081, -0.0018463, 2.106, -3.4146342, 2.106, 12.1951218, 2.106, 1.2195122, , , , , , , , , , , , , , , , , , , , , , 
0.0815192, -0.0265202, 2.1195, 2.1341465, 2.1195, 28.3536587, 2.1195, -0.6097561, 0.0815192, 0.0146029, 2.1195, -2.7439024, 2.1195, 10.9756098, 2.1195, 1.3414634, 0.0815192, -0.0196384, 2.1195, -0.9146342, 2.1195, -14.8170738, 2.1195, -11.4634151, 0.0815192, -0.0095674, 2.1195, 15.4268293, 2.1195, -4.2682929, 2.1195, -9.7560978, 0.0815192, -0.0062104, 2.1195, 38.1707344, 2.1195, -39.3292694, 2.1195, -6.8292685, 0.0815192, -0.018967, 2.1195, 22.439024, 2.1195, -19.8170738, 2.1195, -0.4878049, 0.0815192, -0.0115816, 2.1195, -42.0121956, 2.1195, -25.4878063, 2.1195, 8.5975609, 0.0815192, -0.0001678, 2.1195, -5.3048782, 2.1195, 8.2926826, 2.1195, 1.6463414, , , , , , , , , , , , , , , , , , , , , , 
0.0820385, -0.0280308, 2.133, 7.8048782, 2.133, 35.1219521, 2.133, 0.9756098, 0.0820385, 0.0157778, 2.133, -2.6829269, 2.133, 19.6951218, 2.133, 0.2439024, 0.0820385, -0.0238346, 2.133, -4.6341462, 2.133, -73.7195129, 2.133, -63.4756126, 0.0820385, -0.0099031, 2.133, 16.1585369, 2.133, -1.8902439, 2.133, -9.9390249, 0.0820385, -0.0048676, 2.133, 40.5487823, 2.133, -53.5365868, 2.133, -11.7073174, 0.0820385, -0.0085603, 2.133, 54.0853653, 2.133, -68.5975647, 2.133, -13.6585369, 0.0820385, -0.0119173, 2.133, -53.3536606, 2.133, -43.6585388, 2.133, 9.2682924, 0.0820385, -0.0001678, 2.133, -2.0731707, 2.133, 5.9146342, 2.133, 1.7073171, , , , , , , , , , , , , , , , , , , , , , 
0.0825577, -0.0283665, 2.1465, 11.6463413, 2.1465, 43.841465, 2.1465, 1.097561, 0.0825577, 0.0186313, 2.1465, -3.1097562, 2.1465, 29.6341476, 2.1465, -1.5853659, 0.0825577, -0.0198062, 2.1465, 18.7195129, 2.1465, -118.3536606, 2.1465, -36.0975609, 0.0825577, -0.008896, 2.1465, 17.560976, 2.1465, 3.4146342, 2.1465, -10.3658543, 0.0825577, -0.0043641, 2.1465, 35.5487823, 2.1465, -42.0731735, 2.1465, -9.2073174, 0.0825577, 0.005539, 2.1465, 21.3414631, 2.1465, -92.68293, 2.1465, -1.6463414, 0.0825577, -0.0115816, 2.1465, -50.7926826, 2.1465, -36.9512215, 2.1465, 8.5975609, 0.0825577, 0.0005035, 2.1465, -2.6219513, 2.1465, 9.3902445, 2.1465, 1.7682927, , , , , , , , , , , , , , , , , , , , , , 
0.0830769, -0.0276951, 2.16, 12.1341467, 2.16, 48.1097565, 2.16, 0.7317073, 0.0830769, 0.0186313, 2.16, -4.8780489, 2.16, 38.0487823, 2.16, -1.8902439, 0.0830769, -0.0164492, 2.16, 20.6707325, 2.16, -135.1219482, 2.16, -7.0731707, 0.0830769, -0.0078889, 2.16, 20.6707325, 2.16, 10.4878054, 2.16, -10.1219511, 0.0830769, -0.0062104, 2.16, 37.6219521, 2.16, -19.8780499, 2.16, -3.3536587, 0.0830769, 0.0132601, 2.16, 6.280488, 2.16, -92.9268341, 2.16, 6.7682929, 0.0830769, -0.012253, 2.16, -43.2317085, 2.16, -25.4878063, 2.16, 9.0853662, 0.0830769, 0.0008392, 2.16, -5.2439027, 2.16, 19.2073174, 2.16, 2.195122, , , , , , , , , , , , , , , , , , , , , , 
0.0835962, -0.0273594, 2.1735, 10.9756098, 2.1735, 53.1097565, 2.1735, 0.7926829, 0.0835962, 0.0182956, 2.1735, -6.1585369, 2.1735, 38.5975609, 2.1735, -1.2804878, 0.0835962, -0.0179599, 2.1735, 8.1707315, 2.1735, -79.5121994, 2.1735, 6.0365853, 0.0835962, -0.0070497, 2.1735, 21.8292694, 2.1735, 14.0853662, 2.1735, -10.060976, 0.0835962, -0.0082246, 2.1735, 36.4634171, 2.1735, -5.1219511, 2.1735, 2.1341465, 0.0835962, 0.0251774, 2.1735, 0.3658537, 2.1735, -71.3414688, 2.1735, 8.2317076, 0.0835962, -0.0132601, 2.1735, -39.3292694, 2.1735, -19.8170738, 2.1735, 9.5121956, 0.0835962, 0.0015106, 2.1735, -6.6463418, 2.1735, 23.9024391, 2.1735, 2.0121951, , , , , , , , , , , , , , , , , , , , , , 
0.0841154, -0.026688, 2.187, 10.6707315, 2.187, 53.1707344, 2.187, 3.3536587, 0.0841154, 0.0179599, 2.187, -7.2560978, 2.187, 39.3292694, 2.187, -1.3414634, 0.0841154, -0.0206455, 2.187, -9.7560978, 2.187, 1.7682927, 2.187, 13.841464, 0.0841154, -0.0068818, 2.187, 22.1951218, 2.187, 18.4146347, 2.187, -9.3902445, 0.0841154, -0.0095674, 2.187, 33.7195129, 2.187, -1.2804878, 2.187, 3.6585367, 0.0841154, 0.0491798, 2.187, -9.4512196, 2.187, -10.6097565, 2.187, 7.1341467, 0.0841154, -0.0109102, 2.187, -32.3780479, 2.187, -5.7317076, 2.187, 6.0365853, 0.0841154, 0.0018463, 2.187, -8.1097565, 2.187, 31.9512196, 2.187, 1.4634147, , , , , , , , , , , , , , , , , , , , , , 
0.0846346, -0.0256809, 2.2005, 11.6463413, 2.2005, 53.1707344, 2.2005, 6.2195125, 0.0846346, 0.0171206, 2.2005, -8.4756098, 2.2005, 39.8170738, 2.2005, -2.1341465, 0.0846346, -0.0216526, 2.2005, -17.439024, 2.2005, 46.7682953, 2.2005, 15, 0.0846346, -0.0102388, 2.2005, 24.7560978, 2.2005, 18.2926826, 2.2005, -7.7439027, 0.0846346, -0.0102388, 2.2005, 25.9756107, 2.2005, 2.4390244, 2.2005, 3.1097562, 0.0846346, 0.0755322, 2.2005, -11.0975609, 2.2005, 43.2317085, 2.2005, 4.9390244, 0.0846346, -0.0083925, 2.2005, -32.2560997, 2.2005, 9.0853662, 2.2005, 0.2439024, 0.0846346, 0.0018463, 2.2005, -9.5121956, 2.2005, 34.6341476, 2.2005, 1.2804878, , , , , , , , , , , , , , , , , , , , , , 
0.0851538, -0.026688, 2.214, 13.9024391, 2.214, 48.841465, 2.214, 8.5365858, 0.0851538, 0.0166171, 2.214, -11.4634151, 2.214, 40.3658562, 2.214, -2.5609756, 0.0851538, -0.0236667, 2.214, -15.060976, 2.214, 67.68293, 2.214, 9.0243902, 0.0851538, -0.0152743, 2.214, 25.9756107, 2.214, 21.5853672, 2.214, -5.1829271, 0.0851538, -0.0097353, 2.214, 17.0731716, 2.214, 3.3536587, 2.214, 0.9146342, 0.0851538, 0.0817426, 2.214, -8.2317076, 2.214, 74.7560959, 2.214, 4.7560978, 0.0851538, -0.0075532, 2.214, -34.6951218, 2.214, 17.3780499, 2.214, -1.8292683, 0.0851538, -0.0001678, 2.214, -13.0487804, 2.214, 33.4756088, 2.214, 1.097561, , , , , , , , , , , , , , , , , , , , , , 
0.0856731, -0.0276951, 2.2275, 14.7560978, 2.2275, 41.8292694, 2.2275, 9.0853662, 0.0856731, 0.0166171, 2.2275, -12.2560978, 2.2275, 38.4756088, 2.2275, -3.3536587, 0.0856731, -0.0256809, 2.2275, -8.5975609, 2.2275, 65.7926865, 2.2275, 6.1585369, 0.0856731, -0.0172885, 2.2275, 25.4268303, 2.2275, 28.2926826, 2.2275, -5, 0.0856731, -0.0095674, 2.2275, 15.2439032, 2.2275, 12.3780489, 2.2275, 6.890244, 0.0856731, 0.0669718, 2.2275, -7.5, 2.2275, 81.4024429, 2.2275, 8.780488, 0.0856731, -0.0068818, 2.2275, -37.0121956, 2.2275, 23.0487804, 2.2275, -0.5487805, 0.0856731, -0.0011749, 2.2275, -12.9268293, 2.2275, 33.1707306, 2.2275, 0.6097561, , , , , , , , , , , , , , , , , , , , , , 
0.0861923, -0.0273594, 2.241, 14.3292685, 2.241, 35.9146347, 2.241, 8.1707315, 0.0861923, 0.0179599, 2.241, -12.1951218, 2.241, 33.2926826, 2.241, -5, 0.0861923, -0.0256809, 2.241, -7.8048782, 2.241, 55.1219521, 2.241, 6.6463418, 0.0861923, -0.0159457, 2.241, 26.7682934, 2.241, 35.6707344, 2.241, -5.670732, 0.0861923, -0.012253, 2.241, 27.5, 2.241, 31.0365868, 2.241, 22.2560978, 0.0861923, 0.043473, 2.241, -6.3414636, 2.241, 62.5, 2.241, 9.8170738, 0.0861923, -0.0062104, 2.241, -41.0975609, 2.241, 34.2682953, 2.241, 2.5, 0.0861923, -0.0005035, 2.241, -10.4878054, 2.241, 38.2317085, 2.241, 0.6707317, , , , , , , , , , , , , , , , , , , , , , 
0.0867115, -0.0275273, 2.2545, 13.841464, 2.2545, 30.9756107, 2.2545, 6.0365853, 0.0867115, 0.018967, 2.2545, -12.560976, 2.2545, 29.0853672, 2.2545, -6.2195125, 0.0867115, -0.0263523, 2.2545, -9.6951218, 2.2545, 21.7073174, 2.2545, 5.4878049, 0.0867115, -0.0162814, 2.2545, 29.2682934, 2.2545, 42.7439041, 2.2545, -4.8780489, 0.0867115, -0.01561, 2.2545, 39.7560997, 2.2545, 48.9634171, 2.2545, 34.1463432, 0.0867115, 0.0139315, 2.2545, -0.7926829, 2.2545, 22.8658543, 2.2545, 5.7926831, 0.0867115, -0.0058747, 2.2545, -41.5853653, 2.2545, 49.5121956, 2.2545, 2.8658538, 0.0867115, -0.0023499, 2.2545, -12.3780489, 2.2545, 45.5487823, 2.2545, 0.8536586, , , , , , , , , , , , , , , , , , , , , , 
