Application:, Trigno Discover (2.0.1.3)
Date/Time:, 04-Nov-25 15:19:34
Collection Length (seconds):, 2.997
 Hamstrings right (85641), , , , , , , ,  Rectus Femoris right (85844), , , , , , , ,  Gastrocnemius left (85904), , , , , , , , TibilaisÂ Anterior right (85650), , , , , , , ,  Hamstrings left (85586), , , , , , , , TibilaisÂ Anterior left (85605), , , , , , , ,  Rectus Femoris left (85878), , , , , , , ,  Gastrocnemius right (85873)
sensor mode: 49, , , , , , , , sensor mode: 49, , , , , , , , sensor mode: 49, , , , , , , , sensor mode: 49, , , , , , , , sensor mode: 49, , , , , , , , sensor mode: 49, , , , , , , , sensor mode: 49, , , , , , , , sensor mode: 49
EMG 1 Time Series (s), EMG 1 (mV), GYRO X Time Series (s), GYRO X (deg/s), GYRO Y Time Series (s), GYRO Y (deg/s), GYRO Z Time Series (s), GYRO Z (deg/s), EMG 1 Time Series (s), EMG 1 (mV), GYRO X Time Series (s), GYRO X (deg/s), GYRO Y Time Series (s), GYRO Y (deg/s), GYRO Z Time Series (s), GYRO Z (deg/s), EMG 1 Time Series (s), EMG 1 (mV), GYRO X Time Series (s), GYRO X (deg/s), GYRO Y Time Series (s), GYRO Y (deg/s), GYRO Z Time Series (s), GYRO Z (deg/s), EMG 1 Time Series (s), EMG 1 (mV), GYRO X Time Series (s), GYRO X (deg/s), GYRO Y Time Series (s), GYRO Y (deg/s), GYRO Z Time Series (s), GYRO Z (deg/s), EMG 1 Time Series (s), EMG 1 (mV), GYRO X Time Series (s), GYRO X (deg/s), GYRO Y Time Series (s), GYRO Y (deg/s), GYRO Z Time Series (s), GYRO Z (deg/s), EMG 1 Time Series (s), EMG 1 (mV), GYRO X Time Series (s), GYRO X (deg/s), GYRO Y Time Series (s), GYRO Y (deg/s), GYRO Z Time Series (s), GYRO Z (deg/s), EMG 1 Time Series (s), EMG 1 (mV), GYRO X Time Series (s), GYRO X (deg/s), GYRO Y Time Series (s), GYRO Y (deg/s), GYRO Z Time Series (s), GYRO Z (deg/s), EMG 1 Time Series (s), EMG 1 (mV), GYRO X Time Series (s), GYRO X (deg/s), GYRO Y Time Series (s), GYRO Y (deg/s), GYRO Z Time Series (s), GYRO Z (deg/s)
, 1925.9259 Hz, , 74.0741 Hz, , 74.0741 Hz, , 74.0741 Hz, , 1925.9259 Hz, , 74.0741 Hz, , 74.0741 Hz, , 74.0741 Hz, , 1925.9259 Hz, , 74.0741 Hz, , 74.0741 Hz, , 74.0741 Hz, , 1925.9259 Hz, , 74.0741 Hz, , 74.0741 Hz, , 74.0741 Hz, , 1925.9259 Hz, , 74.0741 Hz, , 74.0741 Hz, , 74.0741 Hz, , 1925.9259 Hz, , 74.0741 Hz, , 74.0741 Hz, , 74.0741 Hz, , 1925.9259 Hz, , 74.0741 Hz, , 74.0741 Hz, , 74.0741 Hz, , 1925.9259 Hz, , 74.0741 Hz, , 74.0741 Hz, , 74.0741 Hz
, 0.0005192307692307692 s, , 0.0135 s, , 0.0135 s, , 0.0135 s, , 0.0005192307692307692 s, , 0.0135 s, , 0.0135 s, , 0.0135 s, , 0.0005192307692307692 s, , 0.0135 s, , 0.0135 s, , 0.0135 s, , 0.0005192307692307692 s, , 0.0135 s, , 0.0135 s, , 0.0135 s, , 0.0005192307692307692 s, , 0.0135 s, , 0.0135 s, , 0.0135 s, , 0.0005192307692307692 s, , 0.0135 s, , 0.0135 s, , 0.0135 s, , 0.0005192307692307692 s, , 0.0135 s, , 0.0135 s, , 0.0135 s, , 0.0005192307692307692 s, , 0.0135 s, , 0.0135 s, , 0.0135 s, , Type, Name, Label, Time (s), , Pair, E1, E2, T1, T2, V1, V2, Sensor, Channel, Units, Delta T, RMS, PKPK, Peak Value, TPK, Integral
0, -0.1163195, 0, 77.5, 0, 142.4390259, 0, -71.5853653, 0, 0.030045, 0, -48.6585388, 0, 342.8049011, 0, 33.2926826, 0, 0.0471656, 0, 4.1463413, 0, 365.73172, 0, 344.9390259, 0, 0.0404517, 0, -23.5975609, 0, 141.4024353, 0, -102.0731735, 0, -0.0063783, 0, -347.4390259, 0, 50.7926826, 0, 136.5853729, 0, 0.0743572, 0, -350.7926941, 0, 405, 0, 77.8048782, 0, -0.0229953, 0, 252.5, 0, 150.4268341, 0, -146.1585388, 0, -0.0171206, 0, 143.4756165, 0, 9.4512196, 0, 34.3292694, , , , , , , , , , , , , , , , , , , , , , 
0.0005192, -0.0921492, 0.0135, -14.7560978, 0.0135, 84.2682953, 0.0135, -56.1585388, 0.0005192, 0.0518654, 0.0135, -89.8780518, 0.0135, 292.7438965, 0.0135, -42.0731735, 0.0005192, 0.0303807, 0.0135, -139.8170776, 0.0135, 390.3658752, 0.0135, 323.23172, 0.0005192, 0.1414969, 0.0135, -48.7195129, 0.0135, 57.7439041, 0.0135, -78.3536606, 0.0005192, -0.0099031, 0.0135, -315.4878235, 0.0135, 73.9024429, 0.0135, 90.4878082, 0.0005192, 0.036759, 0.0135, -317.6219482, 0.0135, 417.6219482, 0.0135, -70.18293, 0.0005192, -0.0209812, 0.0135, 234.3292694, 0.0135, 159.4512177, 0.0135, -116.4024429, 0.0005192, -0.01561, 0.0135, 114.7561035, 0.0135, -12.560976, 0.0135, 0.6097561, , , , , , , , , , , , , , , , , , , , , , 
0.0010385, -0.0757, 0.027, 97.2561035, 0.027, -2.7439024, 0.027, 50, 0.0010385, 0.0703288, 0.027, -69.8780518, 0.027, 6.7073174, 0.027, -121.0975647, 0.0010385, 0.0119173, 0.027, -177.1951294, 0.027, 137.86586, 0.027, 205.36586, 0.0010385, 0.188159, 0.027, -80.8536606, 0.027, -60.5487823, 0.027, -38.5975609, 0.0010385, -0.0149386, 0.027, -318.7195129, 0.027, 75.9146347, 0.027, 68.1707306, 0.0010385, 0.0459907, 0.027, -202.0731812, 0.027, 126.9512253, 0.027, -158.6585388, 0.0010385, -0.0186313, 0.027, 211.8902435, 0.027, 145.1219482, 0.027, -80.8536606, 0.0010385, -0.0229953, 0.027, 46.2195129, 0.027, -21.7682934, 0.027, -84.8780518, , , , , , , , , , , , , , , , , , , , , , 
0.0015577, -0.0673075, 0.0405, 261.2804871, 0.0405, -115.9146347, 0.0405, 45.8536606, 0.0015577, 0.0908064, 0.0405, -71.4024429, 0.0405, -106.646347, 0.0405, -83.1097565, 0.0015577, -0.0015106, 0.0405, -32.3780479, 0.0405, -182.4390259, 0.0405, 112.68293, 0.0015577, 0.1267262, 0.0405, -75.8536606, 0.0405, -67.0731735, 0.0405, -13.2926836, 0.0015577, -0.0223239, 0.0405, -359.3292847, 0.0405, 59.2073174, 0.0405, 29.5731716, 0.0015577, 0.0763714, 0.0405, -121.8292694, 0.0405, -151.8292694, 0.0405, -87.6219559, 0.0015577, -0.0142672, 0.0405, 232.0731812, 0.0405, 107.9878082, 0.0405, -36.7682953, 0.0015577, -0.0414588, 0.0405, 20.1219521, 0.0405, -19.0853672, 0.0405, -114.146347, , , , , , , , , , , , , , , , , , , , , , 
0.0020769, -0.0592508, 0.054, 196.0975647, 0.054, -71.8902435, 0.054, -39.5121956, 0.0020769, 0.1126268, 0.054, -87.3780518, 0.054, -174.146347, 0.054, -60.6707344, 0.0020769, -0.0283665, 0.054, 3.1097562, 0.054, -230.2439117, 0.054, 21.4634151, 0.0020769, 0.0260166, 0.054, -29.2073174, 0.054, 37.3170738, 0.054, -46.6463432, 0.0020769, -0.0307164, 0.054, -419.1463623, 0.054, 28.6585369, 0.054, -1.6463414, 0.0020769, 0.0904707, 0.054, -21.280489, 0.054, -195.3048859, 0.054, -73.5365906, 0.0020769, -0.0083925, 0.054, 317.5, 0.054, 44.0243912, 0.054, -1.2804878, 0.0020769, -0.0547189, 0.054, 53.2926826, 0.054, 45.4878044, 0.054, -50.5487823, , , , , , , , , , , , , , , , , , , , , , 
0.0025962, -0.0528725, 0.0675, 151.5243988, 0.0675, -35.9146347, 0.0675, -79.2073212, 0.0025962, 0.1300832, 0.0675, -115.18293, 0.0675, -91.8902435, 0.0675, -69.9390259, 0.0025962, -0.0716716, 0.0675, -114.5121994, 0.0675, -41.5853653, 0.0675, -58.7195129, 0.0025962, 0.0020142, 0.0675, 42.4390259, 0.0675, 181.0975647, 0.0675, -54.4512215, 0.0025962, -0.0364233, 0.0675, 0, 0.0675, 0, 0.0675, 0, 0.0025962, 0.0582437, 0.0675, 49.2682953, 0.0675, 21.8902435, 0.0675, -140.8536682, 0.0025962, -0.0028534, 0.0675, 379.6341553, 0.0675, -55.1219521, 0.0675, -24.7560978, 0.0025962, -0.051194, 0.0675, 49.2073174, 0.0675, 105.2439041, 0.0675, 13.1707315, , , , , , , , , , , , , , , , , , , , , , 
0.0031154, -0.051194, 0.081, 213.3536682, 0.081, 5.5487804, 0.081, -41.0975609, 0.0031154, 0.1404898, 0.081, -179.0853729, 0.081, 27.1341476, 0.081, -57.7439041, 0.0031154, -0.1109483, 0.081, -237.5, 0.081, 139.5121918, 0.081, -128.3536682, 0.0031154, 0.0708324, 0.081, 77.8658524, 0.081, 203.8414612, 0.081, -19.6341476, 0.0031154, -0.0391089, 0.081, -562.2561035, 0.081, 36.6463432, 0.081, -112.5609818, 0.0031154, -0.0001678, 0.081, 138.8414612, 0.081, 184.6341553, 0.081, -194.3902435, 0.0031154, 0.0001678, 0.081, 361.0975647, 0.081, -116.0365906, 0.081, -71.1585388, 0.0031154, -0.0473335, 0.081, 32.4390259, 0.081, 184.7561035, 0.081, 9.3292685, , , , , , , , , , , , , , , , , , , , , , 
0.0036346, -0.0491798, 0.0945, 193.6585388, 0.0945, 123.7804871, 0.0945, -26.7682934, 0.0036346, 0.145861, 0.0945, -228.6585388, 0.0945, 112.5609818, 0.0945, -30.3658543, 0.0036346, -0.1334401, 0.0945, -289.8170776, 0.0945, 205.1829376, 0.0945, -224.8170776, 0.0036346, 0.1495537, 0.0945, 84.5731735, 0.0945, 137.3170776, 0.0945, -9.2073174, 0.0036346, -0.0391089, 0.0945, -460.5487976, 0.0945, 21.6463413, 0.0945, -193.5365906, 0.0036346, -0.0377661, 0.0945, 238.4756165, 0.0945, 239.512207, 0.0945, -221.2195129, 0.0036346, -0.0015106, 0.0945, 352.6219482, 0.0945, -161.1585388, 0.0945, -88.7804871, 0.0036346, -0.0476692, 0.0945, 8.2926826, 0.0945, 164.0853729, 0.0945, 15.9756098, , , , , , , , , , , , , , , , , , , , , , 
0.0041538, -0.0417945, 0.108, 158.5365906, 0.108, 200.5487823, 0.108, -67.0121994, 0.0041538, 0.1482109, 0.108, -256.7683105, 0.108, 157.3170776, 0.108, -16.7073174, 0.0041538, -0.1488823, 0.108, -295.3658752, 0.108, 192.5, 0.108, -324.7561035, 0.0041538, 0.1609674, 0.108, 100.0609818, 0.108, 91.2804871, 0.108, -12.3170738, 0.0041538, -0.0364233, 0.108, 0, 0.108, 0, 0.108, 0, 0.0041538, -0.0605936, 0.108, 335.4878235, 0.108, 231.5853729, 0.108, -232.9268341, 0.0041538, -0.0043641, 0.108, 387.2561035, 0.108, -146.7073212, 0.108, -88.5975647, 0.0041538, -0.0451514, 0.108, -3.4146342, 0.108, 160.36586, 0.108, 34.7560997, , , , , , , , , , , , , , , , , , , , , , 
0.0046731, -0.0276951, 0.1215, 146.2804871, 0.1215, 215.36586, 0.1215, -85.3048782, 0.0046731, 0.145861, 0.1215, -283.1097717, 0.1215, 159.6951294, 0.1215, -18.1097565, 0.0046731, -0.1398184, 0.1215, -306.4024353, 0.1215, 148.6585388, 0.1215, -409.6951294, 0.0046731, 0.1230335, 0.1215, 129.5121918, 0.1215, 75.5487823, 0.1215, -8.0487804, 0.0046731, -0.0325628, 0.1215, -347.4390259, 0.1215, -71.0975647, 0.1215, -133.2317047, 0.0046731, -0.0894636, 0.1215, 416.7073364, 0.1215, 200.7926941, 0.1215, -260.9756165, 0.0046731, -0.0075532, 0.1215, 378.23172, 0.1215, -73.2926865, 0.1215, -59.3292694, 0.0046731, -0.0370947, 0.1215, -26.5243912, 0.1215, 158.2926941, 0.1215, 59.0243912, , , , , , , , , , , , , , , , , , , , , , 
0.0051923, -0.0090639, 0.135, 201.1585388, 0.135, 175.2439117, 0.135, -81.3414688, 0.0051923, 0.1346151, 0.135, -301.4634094, 0.135, 126.2804871, 0.135, -27.1951218, 0.0051923, -0.1116197, 0.135, -344.0243835, 0.135, 121.9512253, 0.135, -461.8292847, 0.0051923, 0.0864424, 0.135, 150.0609741, 0.135, 46.6463432, 0.135, 16.0365849, 0.0051923, -0.0290379, 0.135, -305.2438965, 0.135, 34.0243912, 0.135, -105, 0.0051923, -0.1008774, 0.135, 447.1951294, 0.135, 187.9268341, 0.135, -281.5243835, 0.0051923, -0.0095674, 0.135, 336.0975647, 0.135, 4.6951222, 0.135, -2.7439024, 0.0051923, -0.0236667, 0.135, -63.7195129, 0.135, 138.1707306, 0.135, 74.8170776, , , , , , , , , , , , , , , , , , , , , , 
0.0057115, 0.0119173, 0.1485, 317.8658752, 0.1485, 42.1951218, 0.1485, -80.4268341, 0.0057115, 0.1144732, 0.1485, -364.512207, 0.1485, 66.7682953, 0.1485, -35.9146347, 0.0057115, -0.0834211, 0.1485, -360.3049011, 0.1485, 80, 0.1485, -504.4512329, 0.0057115, 0.0861067, 0.1485, 145.2439117, 0.1485, 24.8780499, 0.1485, 14.0243902, 0.0057115, -0.0283665, 0.1485, -198.7195129, 0.1485, 73.4146347, 0.1485, -94.6951218, 0.0057115, -0.0458228, 0.1485, 490.243927, 0.1485, 159.3292694, 0.1485, -321.2195129, 0.0057115, -0.0135958, 0.1485, 269.5731812, 0.1485, 67.1341476, 0.1485, 44.6341476, 0.0057115, -0.005539, 0.1485, -95.6707306, 0.1485, 122.86586, 0.1485, 74.8170776, , , , , , , , , , , , , , , , , , , , , , 
0.0062308, 0.0297093, 0.162, 319.3292847, 0.162, -74.3292694, 0.162, -127.5, 0.0062308, 0.0918135, 0.162, -367.2561035, 0.162, -5.2439027, 0.162, -53.5365868, 0.0062308, -0.0607614, 0.162, -361.1585388, 0.162, 58.1097565, 0.162, -524.9390259, 0.0062308, 0.1045701, 0.162, 175.9146423, 0.162, 131.9512177, 0.162, -22.8658543, 0.0062308, -0.030045, 0.162, -54.9390259, 0.162, 48.9634171, 0.162, -79.2682953, 0.0062308, 0.0357519, 0.162, 525, 0.162, 112.68293, 0.162, -346.0365906, 0.0062308, -0.0181277, 0.162, 189.512207, 0.162, 84.2073212, 0.162, 76.0365906, 0.0062308, 0.0119173, 0.162, -89.3292694, 0.162, 171.5853729, 0.162, 77.7439041, , , , , , , , , , , , , , , , , , , , , , 
0.00675, 0.0387732, 0.1755, 315.73172, 0.1755, 4.1463413, 0.1755, -122.68293, 0.00675, 0.0647898, 0.1755, -356.7683105, 0.1755, -110.6707306, 0.1755, -95.0609741, 0.00675, -0.0538796, 0.1755, -356.9512329, 0.1755, -7.9268293, 0.1755, -543.4146729, 0.00675, 0.1104448, 0.1755, 189.6951294, 0.1755, 197.5, 0.1755, -29.9390259, 0.00675, -0.0310521, 0.1755, 50.7926826, 0.1755, 30.4268303, 0.1755, -91.1585388, 0.00675, 0.0364233, 0.1755, 546.9512329, 0.1755, 75, 0.1755, -350.7926941, 0.00675, -0.0240024, 0.1755, 98.8414688, 0.1755, 54.9390259, 0.1755, 100.6097565, 0.00675, 0.0179599, 0.1755, -85.9146347, 0.1755, 258.8414612, 0.1755, 71.4634171, , , , , , , , , , , , , , , , , , , , , , 
0.0072692, 0.0414588, 0.189, 321.1585388, 0.189, 2.3170731, 0.189, -101.4634171, 0.0072692, 0.0347448, 0.189, -401.5853882, 0.189, -170, 0.189, -84.0243912, 0.0072692, -0.0693217, 0.189, -332.7438965, 0.189, -68.2926865, 0.189, -543.9024658, 0.0072692, 0.0971847, 0.189, 277.2561035, 0.189, 214.6341553, 0.189, 6.890244, 0.0072692, -0.0317235, 0.189, 77.2560959, 0.189, 29.8170738, 0.189, -101.7073212, 0.0072692, -0.0350805, 0.189, 546.4024658, 0.189, 30.060976, 0.189, -332.3170776, 0.0072692, -0.0297093, 0.189, 22.1341476, 0.189, 12.8658543, 0.189, 108.9634171, 0.0072692, 0.0112459, 0.189, -157.1341553, 0.189, 189.2682953, 0.189, 105.4268341, , , , , , , , , , , , , , , , , , , , , , 
0.0077885, 0.0365911, 0.2025, 262.8658447, 0.2025, -118.2317123, 0.2025, -104.9390259, 0.0077885, 0.0172885, 0.2025, -373.0487976, 0.2025, -134.8780518, 0.2025, -37.3170738, 0.0077885, -0.090135, 0.2025, -306.7683105, 0.2025, -130.7926788, 0.2025, -528.6585693, 0.0077885, 0.0850996, 0.2025, 209.5731812, 0.2025, 48.9024391, 0.2025, -63.3536606, 0.0077885, -0.033402, 0.2025, 91.7682953, 0.2025, 33.3536606, 0.2025, -108.5365906, 0.0077885, -0.1117876, 0.2025, 538.2927246, 0.2025, -24.6341476, 0.2025, -305.6707458, 0.0077885, -0.0337377, 0.2025, -13.2926836, 0.2025, -17.5, 0.2025, 101.4634171, 0.0077885, -0.0001678, 0.2025, -72.0731735, 0.2025, 53.2317085, 0.2025, 142.1341553, , , , , , , , , , , , , , , , , , , , , , 
0.0083077, 0.0176242, 0.216, 166.5243988, 0.216, -117.2561035, 0.216, -58.7804909, 0.0083077, 0.0176242, 0.216, -143.9024353, 0.216, -84.5121994, 0.216, -58.0487823, 0.0083077, -0.0931563, 0.216, -292.8658752, 0.216, -190.9146423, 0.216, -504.0853882, 0.0083077, 0.0877852, 0.216, -82.9878082, 0.216, -152.8048859, 0.216, -279.4512329, 0.0083077, -0.0370947, 0.216, 152.0121918, 0.216, 56.5243912, 0.216, -73.6585388, 0.0083077, -0.1596246, 0.216, 524.9390259, 0.216, -97.68293, 0.216, -289.0243835, 0.0083077, -0.0397803, 0.216, -71.0975647, 0.216, -82.0731735, 0.216, 76.4634171, 0.0083077, 0.0011749, 0.216, 224.8170776, 0.216, -136.2804871, 0.216, 81.5853653, , , , , , , , , , , , , , , , , , , , , , 
0.0088269, -0.0030213, 0.2295, 81.4634171, 0.2295, -138.1097565, 0.2295, 25.6097565, 0.0088269, 0.0246738, 0.2295, -5.7926831, 0.2295, -187.012207, 0.2295, -124.2682953, 0.0088269, -0.072343, 0.2295, -259.3902588, 0.2295, -292.1951294, 0.2295, -481.2804871, 0.0088269, 0.0803998, 0.2295, -339.6341553, 0.2295, -170.6707306, 0.2295, -557.5, 0.0088269, -0.0404517, 0.2295, 209.8780518, 0.2295, 95.0609741, 0.2295, -9.2073174, 0.0088269, -0.1468681, 0.2295, 505.1219482, 0.2295, -171.7682953, 0.2295, -260.4878235, 0.0088269, -0.0464942, 0.2295, -93.9024429, 0.2295, -113.8414688, 0.2295, 65.0609741, 0.0088269, -0.0008392, 0.2295, 668.2317505, 0.2295, -290.9146423, 0.2295, -11.6463413, , , , , , , , , , , , , , , , , , , , , , 
0.0093462, -0.0124208, 0.243, 42.9268303, 0.243, -225.1219635, 0.243, 91.8902435, 0.0093462, 0.0273594, 0.243, 26.3414631, 0.243, -229.6951294, 0.243, -96.1585388, 0.0093462, -0.0354162, 0.243, -189.146347, 0.243, -350.4878235, 0.243, -468.6585388, 0.0093462, 0.0518654, 0.243, -396.7073364, 0.243, -246.2804871, 0.243, -668.2927246, 0.0093462, -0.0411231, 0.243, 188.0487823, 0.243, 103.1097565, 0.243, 34.2073174, 0.0093462, -0.0921492, 0.243, 470.4878235, 0.243, -201.0365906, 0.243, -220.4268341, 0.0093462, -0.051194, 0.243, -83.7195129, 0.243, -64.6341476, 0.243, 75.3048782, 0.0093462, -0.0223239, 0.243, 752.5, 0.243, -105.5487823, 0.243, -18.2317085, , , , , , , , , , , , , , , , , , , , , , 
0.0098654, -0.0149386, 0.2565, 78.1707306, 0.2565, -117.2561035, 0.2565, 122.68293, 0.0098654, 0.0219883, 0.2565, 10.4268293, 0.2565, -97.7439041, 0.2565, -57.0731735, 0.0098654, 0.0008392, 0.2565, -161.5853729, 0.2565, -285.9756165, 0.2565, -438.9634399, 0.0098654, 0.026688, 0.2565, -392.6829224, 0.2565, -175.2439117, 0.2565, -589.6341553, 0.0098654, -0.0411231, 0.2565, 130.2439117, 0.2565, 42.5609779, 0.2565, 21.6463413, 0.0098654, -0.0706645, 0.2565, 432.8658752, 0.2565, -168.5365906, 0.2565, -202.6219635, 0.0098654, -0.0569009, 0.2565, -66.8902435, 0.2565, -2.2560976, 0.2565, 80.6097565, 0.0098654, -0.04448, 0.2565, 716.2805176, 0.2565, -80, 0.2565, -17.9268303, , , , , , , , , , , , , , , , , , , , , , 
0.0103846, -0.012253, 0.27, 109.3902435, 0.27, -109.8780518, 0.27, 118.0487823, 0.0103846, 0.0127565, 0.27, 98.6585388, 0.27, 370.7926941, 0.27, -107.8658524, 0.0103846, 0.021149, 0.27, -195.2439117, 0.27, -168.1707306, 0.27, -375.73172, 0.0103846, 0.0313878, 0.27, -394.9390259, 0.27, -148.5365906, 0.27, -593.7805176, 0.0103846, -0.0394446, 0.27, 102.9878082, 0.27, -59.4512215, 0.27, -48.1097565, 0.0103846, -0.0904707, 0.27, 386.7683105, 0.27, -99.9390259, 0.27, -189.8780518, 0.0103846, -0.0609293, 0.27, -51.1585388, 0.27, 29.8170738, 0.27, 67.3780518, 0.0103846, -0.0451514, 0.27, 741.2805176, 0.27, -175.0609741, 0.27, -42.4390259, , , , , , , , , , , , , , , , , , , , , , 
0.0109038, -0.0119173, 0.2835, 126.5243912, 0.2835, -98.8414688, 0.2835, 106.0975647, 0.0109038, 0.0028534, 0.2835, -26.280489, 0.2835, 161.4024353, 0.2835, -242.4390259, 0.0109038, 0.0224918, 0.2835, -175.5487823, 0.2835, -110.5487823, 0.2835, -303.5975647, 0.0109038, 0.0548867, 0.2835, -396.5853882, 0.2835, -56.8902435, 0.2835, -587.8048706, 0.0109038, -0.0370947, 0.2835, 73.0487823, 0.2835, -99.8780518, 0.2835, -109.2682953, 0.0109038, -0.1064164, 0.2835, 353.9024353, 0.2835, -71.2804871, 0.2835, -169.8170776, 0.0109038, -0.061265, 0.2835, -51.2804909, 0.2835, 49.0853653, 0.2835, 47.0121956, 0.0109038, -0.0327306, 0.2835, 719.6951294, 0.2835, -126.7682953, 0.2835, -87.0121994, , , , , , , , , , , , , , , , , , , , , , 
0.0114231, -0.0132601, 0.297, 196.0975647, 0.297, 32.3780479, 0.297, 84.4512253, 0.0114231, -0.0068818, 0.297, -77.9268341, 0.297, 8.0487804, 0.297, -295, 0.0114231, 0.0162814, 0.297, -70.6097565, 0.297, -109.2073212, 0.297, -216.9512177, 0.0114231, 0.0622721, 0.297, -377.6219482, 0.297, 76.2195129, 0.297, -573.5366211, 0.0114231, -0.0357519, 0.297, 62.2560997, 0.297, -61.0365868, 0.297, -124.7561035, 0.0114231, -0.096849, 0.297, 255.36586, 0.297, -43.9024391, 0.297, -94.9390259, 0.0114231, -0.0599222, 0.297, -71.6463394, 0.297, -7.0121951, 0.297, 31.0365868, 0.0114231, -0.0199741, 0.297, 675.4268188, 0.297, 38.6585388, 0.297, -106.5243912, , , , , , , , , , , , , , , , , , , , , , 
0.0119423, -0.0129244, 0.3105, 237.9268341, 0.3105, 100.4878082, 0.3105, 72.5, 0.0119423, -0.0236667, 0.3105, -173.1707306, 0.3105, -92.2561035, 0.3105, -282.5609741, 0.0119423, 0.0099031, 0.3105, 28.4146347, 0.3105, -146.7073212, 0.3105, -136.4024353, 0.0119423, 0.0493477, 0.3105, -332.1341553, 0.3105, 209.5731812, 0.3105, -572.3780518, 0.0119423, -0.0344091, 0.3105, 85.9756088, 0.3105, -45.1829262, 0.3105, -101.9512253, 0.0119423, -0.0622721, 0.3105, 161.9512177, 0.3105, -98.6585388, 0.3105, -0.3048781, 0.0119423, -0.0589151, 0.3105, -85.9146347, 0.3105, -111.4634171, 0.3105, 22.2560978, 0.0119423, -0.0085603, 0.3105, 666.2805176, 0.3105, 113.5975647, 0.3105, -106.8292694, , , , , , , , , , , , , , , , , , , , , , 
0.0124615, -0.0083925, 0.324, 223.8414612, 0.324, 82.0121994, 0.324, 90.6707306, 0.0124615, -0.0485084, 0.324, -84.6951218, 0.324, -10.6097565, 0.324, -210.7317047, 0.0124615, -0.0011749, 0.324, 72.68293, 0.324, -126.1585388, 0.324, -74.0243912, 0.0124615, 0.0285344, 0.324, -296.7073364, 0.324, 260.73172, 0.324, -577.7438965, 0.0124615, -0.0372625, 0.324, 83.5365906, 0.324, -58.4146347, 0.324, -74.8780518, 0.0124615, 0.0099031, 0.324, 101.4634171, 0.324, -128.2926788, 0.324, 60, 0.0124615, -0.0572366, 0.324, -80.4268341, 0.324, -136.0365906, 0.324, 15.4268293, 0.0124615, 0.0025177, 0.324, 658.2927246, 0.324, 205.9146423, 0.324, -95.9756088, , , , , , , , , , , , , , , , , , , , , , 
0.0129808, -0.0020142, 0.3375, 227.3170776, 0.3375, -15.9756098, 0.3375, 111.646347, 0.0129808, -0.0720073, 0.3375, -67.3780518, 0.3375, -28.3536587, 0.3375, -152.6219482, 0.0129808, -0.0303807, 0.3375, 101.5243912, 0.3375, 11.341464, 0.3375, -4.1463413, 0.0129808, 0.0075532, 0.3375, -211.2804871, 0.3375, 295.4878235, 0.3375, -585.1219482, 0.0129808, -0.0428016, 0.3375, 63.4756126, 0.3375, -77.6219559, 0.3375, -60.1219521, 0.0129808, 0.0928206, 0.3375, 20.3048782, 0.3375, -28.9634151, 0.3375, 101.1585388, 0.0129808, -0.0562295, 0.3375, -71.0975647, 0.3375, -145, 0.3375, -1.0365853, 0.0129808, 0.0025177, 0.3375, 636.5853882, 0.3375, 208.5975647, 0.3375, -71.4024429, , , , , , , , , , , , , , , , , , , , , , 
0.0135, -0.0031891, 0.351, 186.2804871, 0.351, 28.2317085, 0.351, 143.7804871, 0.0135, -0.0881209, 0.351, -66.8292694, 0.351, 32.1951218, 0.351, -175.3048859, 0.0135, -0.0657969, 0.351, 119.6951218, 0.351, 95.6707306, 0.351, 65.4878082, 0.0135, 0.0011749, 0.351, -133.4146423, 0.351, 255.4878082, 0.351, -585.2438965, 0.0135, -0.043473, 0.351, 44.1463432, 0.351, -93.8414688, 0.351, -55.9756126, 0.0135, 0.1065843, 0.351, -63.9634171, 0.351, 109.3292694, 0.351, 136.4634247, 0.0135, -0.0506905, 0.351, -53.0487823, 0.351, -176.0365906, 0.351, -9.2682924, 0.0135, 0.0011749, 0.351, 587.0731812, 0.351, 168.5365906, 0.351, 6.890244, , , , , , , , , , , , , , , , , , , , , , 
0.0140192, -0.018967, 0.3645, 112.9878082, 0.3645, 86.1585388, 0.3645, 179.146347, 0.0140192, -0.0975204, 0.3645, -45.6707344, 0.3645, 130.7926788, 0.3645, -193.1097565, 0.0140192, -0.114641, 0.3645, 124.2073212, 0.3645, 134.3902435, 0.3645, 89.5731735, 0.0140192, 0.01561, 0.3645, -139.8170776, 0.3645, 85.4268341, 0.3645, -611.8902588, 0.0140192, -0.0370947, 0.3645, -25.060976, 0.3645, -136.7073212, 0.3645, -50.9756126, 0.0140192, 0.0527047, 0.3645, -106.8902435, 0.3645, 154.4512177, 0.3645, 160.6707306, 0.0140192, -0.040116, 0.3645, -58.841465, 0.3645, -191.646347, 0.3645, 11.4024391, 0.0140192, 0.0038605, 0.3645, 582.3780518, 0.3645, 201.5853729, 0.3645, 99.0853653, , , , , , , , , , , , , , , , , , , , , , 
0.0145385, -0.0337377, 0.378, 92.8048782, 0.378, -63.7804909, 0.378, 135.8536682, 0.0145385, -0.0991989, 0.378, -36.4634171, 0.378, -24.1463413, 0.378, -107.8048782, 0.0145385, -0.1604639, 0.378, 123.7804871, 0.378, 165.5487823, 0.378, 124.4512253, 0.0145385, 0.0313878, 0.378, -185.6097565, 0.378, -46.2804871, 0.378, -597.0731812, 0.0145385, -0.0305486, 0.378, 48.2317085, 0.378, -111.0365906, 0.378, -58.6585388, 0.0145385, -0.0010071, 0.378, -126.7682953, 0.378, 135.9146423, 0.378, 160, 0.0145385, -0.0293736, 0.378, -74.9390259, 0.378, -110.6097565, 0.378, 76.0365906, 0.0145385, -0.0031891, 0.378, 604.6341553, 0.378, 141.5853729, 0.378, 106.5853653, , , , , , , , , , , , , , , , , , , , , , 
0.0150577, -0.0325628, 0.3915, 9.2073174, 0.3915, -70.1219559, 0.3915, 46.8902435, 0.0150577, -0.100206, 0.3915, -4.9390244, 0.3915, -152.7439117, 0.3915, -60.0609779, 0.0150577, -0.173724, 0.3915, 111.5853653, 0.3915, 164.2682953, 0.3915, 130.2439117, 0.0150577, 0.0360876, 0.3915, -213.4146423, 0.3915, -105.6097565, 0.3915, -533.4146729, 0.0150577, -0.0256809, 0.3915, 185.6097565, 0.3915, -53.1707344, 0.3915, 25.2439022, 0.0150577, -0.0198062, 0.3915, -127.86586, 0.3915, 102.9268341, 0.3915, 136.646347, 0.0150577, -0.0218204, 0.3915, -165.2439117, 0.3915, -70.3658524, 0.3915, 102.1951218, 0.0150577, -0.010071, 0.3915, 572.4390259, 0.3915, 37.8048782, 0.3915, 79.146347, , , , , , , , , , , , , , , , , , , , , , 
0.0155769, -0.0327306, 0.405, -186.5853729, 0.405, -193.6585388, 0.405, 22.8048782, 0.0155769, -0.1065843, 0.405, 77.68293, 0.405, -217.6829376, 0.405, -53.4146347, 0.0155769, -0.1445182, 0.405, 94.5731735, 0.405, 114.3902435, 0.405, 117.7439041, 0.0155769, 0.0251774, 0.405, -152.5609741, 0.405, -57.0731735, 0.405, -411.2195129, 0.0155769, -0.0231632, 0.405, 216.0365906, 0.405, -48.2317085, 0.405, 97.8658524, 0.0155769, -0.018967, 0.405, -141.5853729, 0.405, 123.6585388, 0.405, 123.4756088, 0.0155769, -0.0129244, 0.405, -322.4390259, 0.405, 52.1341476, 0.405, 39.0853653, 0.0155769, -0.0068818, 0.405, 437.012207, 0.405, 85.4878082, 0.405, 79.8170776, , , , , , , , , , , , , , , , , , , , , , 
0.0160962, -0.0518654, 0.4185, -340.9146423, 0.4185, -308.5975647, 0.4185, 58.3536606, 0.0160962, -0.1206836, 0.4185, 207.9878082, 0.4185, -278.5365906, 0.4185, -38.1097565, 0.0160962, -0.0908064, 0.4185, -180.1219482, 0.4185, 638.5366211, 0.4185, 155.8536682, 0.0160962, 0.0105745, 0.4185, -10.7926836, 0.4185, 36.2804871, 0.4185, -226.0365906, 0.0160962, -0.0203098, 0.4185, 136.4634247, 0.4185, 131.4634247, 0.4185, 38.3536606, 0.0160962, -0.0263523, 0.4185, 4.0853658, 0.4185, -349.8170776, 0.4185, -138.2317047, 0.0160962, -0.0035248, 0.4185, -402.5, 0.4185, -52.3780518, 0.4185, -24.6341476, 0.0160962, 0.0031891, 0.4185, 164.146347, 0.4185, 264.5731812, 0.4185, 86.646347, , , , , , , , , , , , , , , , , , , , , , 
0.0166154, -0.0733501, 0.432, -395.3658752, 0.432, -302.5609741, 0.432, 76.7073212, 0.0166154, -0.1455253, 0.432, 386.7683105, 0.432, -284.9390259, 0.432, -11.5853662, 0.0166154, -0.0451514, 0.432, -125.8536606, 0.432, -926.4024658, 0.432, 79.146347, 0.0166154, -0.002182, 0.432, 116.1585388, 0.432, 72.3170776, 0.432, 11.7073174, 0.0166154, -0.0172885, 0.432, -125.6097565, 0.432, 159.3902435, 0.432, -2.6829269, 0.0166154, -0.0297093, 0.432, -142.0121918, 0.432, -266.1585388, 0.432, -147.0731812, 0.0166154, 0.0052033, 0.432, 197.7439117, 0.432, -65.9756088, 0.432, 119.2073212, 0.0166154, 0.0132601, 0.432, -210.2439117, 0.432, 291.2195129, 0.432, 75.6707306, , , , , , , , , , , , , , , , , , , , , , 
0.0171346, -0.0874495, 0.4455, -683.5366211, 0.4455, -263.1097717, 0.4455, 118.4146347, 0.0171346, -0.1754025, 0.4455, 485.3658752, 0.4455, -245.4878082, 0.4455, 28.1097565, 0.0171346, -0.0132601, 0.4455, 494.8170776, 0.4455, -423.7804871, 0.4455, -17.560976, 0.0171346, -0.0226596, 0.4455, 216.1585388, 0.4455, 35.6097565, 0.4455, 226.1585388, 0.0171346, -0.0176242, 0.4455, 79.4512177, 0.4455, -70.7926865, 0.4455, 34.1463432, 0.0171346, -0.0159457, 0.4455, -37.6219521, 0.4455, -165.5487823, 0.4455, 144.0853729, 0.0171346, 0.0139315, 0.4455, 179.8780518, 0.4455, 538.5366211, 0.4455, -57.6219521, 0.0171346, 0.0256809, 0.4455, -397.4390259, 0.4455, 168.7804871, 0.4455, 28.9024391, , , , , , , , , , , , , , , , , , , , , , 
0.0176538, -0.0951705, 0.459, -976.2195435, 0.459, -169.0243988, 0.459, 119.7561035, 0.0176538, -0.1958801, 0.459, 533.1707153, 0.459, -188.9024506, 0.459, 51.2804909, 0.0176538, 0.0078889, 0.459, 37.4390259, 0.459, 382.9268494, 0.459, 390.8536682, 0.0176538, -0.0565652, 0.459, 357.4390259, 0.459, -60.8536606, 0.459, 426.3414612, 0.0176538, -0.0196384, 0.459, -400.0609741, 0.459, -232.5, 0.459, -213.4146423, 0.0176538, -0.0062104, 0.459, -336.8292847, 0.459, 67.5, 0.459, 202.8048859, 0.0176538, 0.0213169, 0.459, -79.5121994, 0.459, 156.0975647, 0.459, 52.4390259, 0.0176538, 0.040116, 0.459, -597.8048706, 0.459, -24.4512196, 0.459, 7.2560978, , , , , , , , , , , , , , , , , , , , , , 
0.0181731, -0.1075914, 0.4725, -826.0975952, 0.4725, -44.3292694, 0.4725, 123.6585388, 0.0181731, -0.202594, 0.4725, 636.2195435, 0.4725, -53.1707344, 0.4725, 116.2195129, 0.0181731, 0.0132601, 0.4725, -98.4756088, 0.4725, 297.5, 0.4725, 355.9146423, 0.0181731, -0.0767071, 0.4725, 520.5487671, 0.4725, -171.0365906, 0.4725, 587.5, 0.0181731, -0.0209812, 0.4725, -27.0731716, 0.4725, -615.9146729, 0.4725, -356.4024353, 0.0181731, -0.0072175, 0.4725, -313.9024353, 0.4725, 686.3414917, 0.4725, 31.7682934, 0.0181731, 0.0280308, 0.4725, 246.2804871, 0.4725, -1115.7316895, 0.4725, -115.18293, 0.0181731, 0.0520333, 0.4725, -713.9024658, 0.4725, -105.6097565, 0.4725, 19.939024, , , , , , , , , , , , , , , , , , , , , , 
0.0186923, -0.1257191, 0.486, -320.6707458, 0.486, 20.9146347, 0.486, 187.2561035, 0.0186923, -0.1975586, 0.486, 720.3048706, 0.486, 23.1707325, 0.486, 156.646347, 0.0186923, 0.0011749, 0.486, -87.1951218, 0.486, 96.0975647, 0.486, 22.9268303, 0.0186923, -0.0542153, 0.486, 689.4512329, 0.486, -205.9146423, 0.486, 730.7317505, 0.0186923, -0.021149, 0.486, 178.5365906, 0.486, -311.9512329, 0.486, -191.4634247, 0.0186923, -0.0109102, 0.486, 3.2317073, 0.486, 184.4512177, 0.486, -11.280488, 0.0186923, 0.033402, 0.486, -88.2926865, 0.486, -442.6219482, 0.486, -18.1097565, 0.0186923, 0.0605936, 0.486, -873.8414917, 0.486, -233.6585388, 0.486, 97.1341476, , , , , , , , , , , , , , , , , , , , , , 
0.0192115, -0.1341115, 0.4995, -376.7073364, 0.4995, 85.9756088, 0.4995, 263.23172, 0.0192115, -0.1829557, 0.4995, 707.8048706, 0.4995, 77.3780518, 0.4995, 170.6097565, 0.0192115, -0.0297093, 0.4995, 79.4512177, 0.4995, -442.3170776, 0.4995, 38.2317085, 0.0192115, 0.0008392, 0.4995, 778.6585693, 0.4995, -210.9146423, 0.4995, 803.8414917, 0.0192115, -0.0208133, 0.4995, 277.4390259, 0.4995, -263.7804871, 0.4995, -177.86586, 0.0192115, -0.0149386, 0.4995, -31.7073174, 0.4995, -495.3049011, 0.4995, -5.0609756, 0.0192115, 0.036759, 0.4995, -314.3902588, 0.4995, -53.6585388, 0.4995, 195.3048859, 0.0192115, 0.0582437, 0.4995, -1015.2438965, 0.4995, -394.9390259, 0.4995, 202.012207, , , , , , , , , , , , , , , , , , , , , , 
0.0197308, -0.128069, 0.513, -597.8048706, 0.513, 106.0975647, 0.513, 232.5609741, 0.0197308, -0.1589532, 0.513, 671.4024658, 0.513, 133.2926788, 0.513, 202.9878082, 0.0197308, -0.0532082, 0.513, 129.0853729, 0.513, -319.8170776, 0.513, 45, 0.0197308, 0.0176242, 0.513, 928.5975952, 0.513, -179.0853729, 0.513, 928.2317505, 0.0197308, -0.0223239, 0.513, 206.0975647, 0.513, -69.8170776, 0.513, -145.8536682, 0.0197308, -0.0337377, 0.513, -81.8292694, 0.513, -447.5609741, 0.513, 47.3780518, 0.0197308, 0.0377661, 0.513, -129.146347, 0.513, -173.1707306, 0.513, 282.9878235, 0.0197308, 0.0360876, 0.513, -1266.2805176, 0.513, -542.5, 0.513, 399.512207, , , , , , , , , , , , , , , , , , , , , , 
0.02025, -0.1225299, 0.5265, -451.5244141, 0.5265, 267.9268494, 0.5265, 122.9268341, 0.02025, -0.1270619, 0.5265, 594.4512329, 0.5265, 223.7804871, 0.5265, 256.3414612, 0.02025, -0.0337377, 0.5265, 29.2073174, 0.5265, -91.5243912, 0.5265, 3.5365853, 0.02025, -0.0337377, 0.5265, 1014.2683105, 0.5265, -81.0975647, 0.5265, 1037.012207, 0.02025, -0.0253452, 0.5265, 95.3658524, 0.5265, 29.2682934, 0.5265, 2.7439024, 0.02025, -0.0861067, 0.5265, -16.3414631, 0.5265, -107.4390259, 0.5265, 12.1951218, 0.02025, 0.0360876, 0.5265, 24.0243912, 0.5265, -32.2560997, 0.5265, -58.1097565, 0.02025, 0.0171206, 0.5265, -1394.3293457, 0.5265, -341.9512329, 0.5265, 638.475647, , , , , , , , , , , , , , , , , , , , , , 
0.0207692, -0.1263905, 0.54, -298.5365906, 0.54, 429.5731812, 0.54, 35.4878044, 0.0207692, -0.0938277, 0.54, 501.5244141, 0.54, 233.3536682, 0.54, 252.5609741, 0.0207692, -0.0008392, 0.54, -24.1463413, 0.54, 39.6341476, 0.54, 35.4268303, 0.0207692, -0.1027237, 0.54, 1033.4755859, 0.54, 83.4146347, 0.54, 1105.3049316, 0.0207692, -0.0276951, 0.54, -10.3658543, 0.54, 64.2682953, 0.54, 13.5975609, 0.0207692, -0.1344472, 0.54, -25.7317085, 0.54, 80.8536606, 0.54, -3.0487804, 0.0207692, 0.0344091, 0.54, 11.341464, 0.54, 100.6707306, 0.54, 2.1341465, 0.0207692, 0.0253452, 0.54, -1456.8293457, 0.54, 110.2439041, 0.54, 688.9634399, , , , , , , , , , , , , , , , , , , , , , 
0.0212885, -0.1304189, 0.5535, -235.3048859, 0.5535, 402.6219482, 0.5535, -66.9512177, 0.0212885, -0.0678111, 0.5535, 206.1585388, 0.5535, 298.1097717, 0.5535, 306.1585388, 0.0212885, 0.0090639, 0.5535, -20.6707325, 0.5535, 83.4756088, 0.5535, 68.5365906, 0.0212885, -0.1404898, 0.5535, 949.5731812, 0.5535, 194.3902435, 0.5535, 1255.6097412, 0.0212885, -0.0281987, 0.5535, 60.6707344, 0.5535, 65.4268341, 0.5535, -43.9024391, 0.0212885, -0.1690242, 0.5535, -73.2926865, 0.5535, 77.1951218, 0.5535, 7.3170733, 0.0212885, 0.0377661, 0.5535, -53.4756126, 0.5535, -4.2073174, 0.5535, 62.8658562, 0.0212885, 0.0503548, 0.5535, -1571.463501, 0.5535, 444.1463623, 0.5535, 424.9390259, , , , , , , , , , , , , , , , , , , , , , 
0.0218077, -0.117998, 0.567, -106.4024429, 0.567, 171.3414612, 0.567, -166.4024353, 0.0218077, -0.0475013, 0.567, -35.9146347, 0.567, 411.8292847, 0.567, 338.23172, 0.0218077, 0.0068818, 0.567, -14.3292685, 0.567, 37.0731697, 0.567, 83.9634171, 0.0218077, -0.1339437, 0.567, 778.2317505, 0.567, 59.3292694, 0.567, 1458.8415527, 0.0218077, -0.0283665, 0.567, 101.5853653, 0.567, -58.1097565, 0.567, -42.4390259, 0.0218077, -0.1898375, 0.567, -60.3048782, 0.567, -10.2439022, 0.567, -9.6951218, 0.0218077, 0.0454871, 0.567, -117.0121994, 0.567, -122.7439041, 0.567, 49.4512215, 0.0218077, 0.0850996, 0.567, -1655.6707764, 0.567, 747.5, 0.567, -18.5975609, , , , , , , , , , , , , , , , , , , , , , 
0.0223269, -0.0882887, 0.5805, -63.1707344, 0.5805, -59.6951218, 0.5805, -204.6951294, 0.0223269, -0.0273594, 0.5805, -115.5487823, 0.5805, 78.7804871, 0.5805, 210.6097565, 0.0223269, 0.0090639, 0.5805, -10.060976, 0.5805, -11.0365858, 0.5805, 58.7195129, 0.0223269, -0.0941634, 0.5805, 686.3414917, 0.5805, -98.4756088, 0.5805, 1239.512207, 0.0223269, -0.0283665, 0.5805, 47.5609779, 0.5805, -92.5, 0.5805, -53.9024391, 0.0223269, -0.1886625, 0.5805, -54.6341476, 0.5805, -41.5243912, 0.5805, -10.6097565, 0.0223269, 0.0528725, 0.5805, -101.4634171, 0.5805, -124.2073212, 0.5805, 29.0243912, 0.0223269, 0.1220264, 0.5805, -1743.8415527, 0.5805, 369.9390259, 0.5805, -159.2682953, , , , , , , , , , , , , , , , , , , , , , 
0.0228462, -0.0602579, 0.594, -328.3536682, 0.594, -533.475647, 0.594, -174.8780518, 0.0228462, -0.012253, 0.594, -152.7439117, 0.594, -382.9268494, 0.594, -27.7439022, 0.0228462, 0.0213169, 0.594, 8.4146347, 0.594, -138.8414612, 0.594, 44.6951218, 0.0228462, -0.0525368, 0.594, 484.6341553, 0.594, 784.2683105, 0.594, 982.012207, 0.0228462, -0.0293736, 0.594, 51.4634171, 0.594, -82.0121994, 0.594, -31.2195129, 0.0228462, -0.1398184, 0.594, -44.8170738, 0.594, -102.9878082, 0.594, -4.390244, 0.0228462, 0.0560616, 0.594, -45.2439041, 0.594, -16.280489, 0.594, 51.0365868, 0.0228462, 0.1475395, 0.594, -246.3414764, 0.594, 274.6341553, 0.594, -265.4878235, , , , , , , , , , , , , , , , , , , , , , 
0.0233654, -0.0458228, 0.6075, -237.5, 0.6075, -179.8780518, 0.6075, -41.5243912, 0.0233654, -0.0070497, 0.6075, 146.4024353, 0.6075, -412.8049011, 0.6075, 111.8292694, 0.0233654, 0.0313878, 0.6075, 37.3780479, 0.6075, -208.7195129, 0.6075, 64.6341476, 0.0233654, -0.0340734, 0.6075, 167.6219482, 0.6075, 249.0853729, 0.6075, 1006.2195435, 0.0233654, -0.0313878, 0.6075, 15.1219511, 0.6075, 76.5853653, 0.6075, -35.1219521, 0.0233654, -0.0924849, 0.6075, -70, 0.6075, -175.5487823, 0.6075, 6.4024391, 0.0233654, 0.0548867, 0.6075, 8.2317076, 0.6075, 91.8902435, 0.6075, 82.8048782, 0.0233654, 0.1542535, 0.6075, -1095.2438965, 0.6075, 803.3536987, 0.6075, -520.5487671, , , , , , , , , , , , , , , , , , , , , , 
0.0238846, -0.0486763, 0.621, -151.2195129, 0.621, 237.7439117, 0.621, -78.0487823, 0.0238846, -0.0018463, 0.621, 748.1098022, 0.621, -328.7804871, 0.621, 487.1951294, 0.0238846, 0.0292058, 0.621, 37.9268303, 0.621, -198.9634247, 0.621, 63.0487823, 0.0238846, -0.0585794, 0.621, 102.1341476, 0.621, 215.5487823, 0.621, 764.2683105, 0.0238846, -0.0323949, 0.621, -68.2317123, 0.621, 92.0121994, 0.621, -65.3658524, 0.0238846, -0.0659648, 0.621, -72.9878082, 0.621, -192.6219482, 0.621, 4.2073174, 0.0238846, 0.0515297, 0.621, -16.8292694, 0.621, -60.4878044, 0.621, 105.4268341, 0.0238846, 0.1052415, 0.621, -869.5731812, 0.621, -214.8170776, 0.621, -420.5487976, , , , , , , , , , , , , , , , , , , , , , 
0.0244038, -0.0715038, 0.6345, -756.0975952, 0.6345, 194.9390259, 0.6345, 1.1585366, 0.0244038, 0.0139315, 0.6345, 662.2561035, 0.6345, -163.5975647, 0.6345, 375.9146423, 0.0244038, 0.0219883, 0.6345, 17.8048782, 0.6345, -138.5975647, 0.6345, 24.6951218, 0.0244038, -0.1119554, 0.6345, -128.8414612, 0.6345, 195.7317047, 0.6345, 135.1219482, 0.0244038, -0.0310521, 0.6345, 20.2439022, 0.6345, -124.5731735, 0.6345, -3.1097562, 0.0244038, 0.036759, 0.6345, -29.6951218, 0.6345, -173.6585388, 0.6345, -5.0609756, 0.0244038, 0.043473, 0.6345, -44.5731735, 0.6345, -71.5243912, 0.6345, 54.3292694, 0.0244038, -0.0203098, 0.6345, 3.1707318, 0.6345, -270.8536682, 0.6345, -271.3414612, , , , , , , , , , , , , , , , , , , , , , 
0.0249231, -0.1082628, 0.648, -779.6951294, 0.648, 204.7561035, 0.648, 42.1341476, 0.0249231, 0.0337377, 0.648, 362.5, 0.648, 369.6341553, 0.648, 283.9024353, 0.0249231, 0.0213169, 0.648, -17.3170738, 0.648, -67.8658524, 0.648, 11.0975609, 0.0249231, -0.1304189, 0.648, -395.7926941, 0.648, -89.5731735, 0.648, 87.5, 0.0249231, -0.0317235, 0.648, 76.7073212, 0.648, -105, 0.648, -42.8658562, 0.0249231, 0.1550927, 0.648, -7.6829271, 0.648, -64.2682953, 0.648, -13.780488, 0.0249231, 0.0318914, 0.648, -53.7804909, 0.648, -10.1219511, 0.648, 3.1097562, 0.0249231, -0.1764096, 0.648, -71.8902435, 0.648, 73.9634171, 0.648, -355.9146423, , , , , , , , , , , , , , , , , , , , , , 
0.0254423, -0.1250477, 0.6615, -426.1585388, 0.6615, 232.2561035, 0.6615, 30.8536587, 0.0254423, 0.0428016, 0.6615, 252.1341553, 0.6615, 262.3170776, 0.6615, 305.0609741, 0.0254423, 0.0292058, 0.6615, -17.9878044, 0.6615, -27.0731716, 0.6615, 19.0853672, 0.0254423, -0.0961776, 0.6615, -304.4512329, 0.6615, 291.0365906, 0.6615, 171.1585388, 0.0254423, -0.0318914, 0.6615, 107.2561035, 0.6615, -143.5365906, 0.6615, -52.0121956, 0.0254423, 0.1545892, 0.6615, -25.8536587, 0.6615, -18.1097565, 0.6615, -27.560976, 0.0254423, 0.0218204, 0.6615, -61.7682953, 0.6615, -131.5853729, 0.6615, -41.2195129, 0.0254423, -0.2747692, 0.6615, 0.7317073, 0.6615, 52.9878044, 0.6615, -433.5365906, , , , , , , , , , , , , , , , , , , , , , 
0.0259615, -0.1042344, 0.675, -343.6585388, 0.675, -44.0243912, 0.675, -61.8292694, 0.0259615, 0.0454871, 0.675, 330.8536682, 0.675, -82.0121994, 0.675, 114.5731735, 0.0259615, 0.0347448, 0.675, -43.1097565, 0.675, -66.5243912, 0.675, -8.5365858, 0.0259615, -0.0364233, 0.675, -347.4390259, 0.675, 266.2195129, 0.675, 42.9268303, 0.0259615, -0.0323949, 0.675, 171.5243988, 0.675, -197.3170776, 0.675, -123.6585388, 0.0259615, 0.1398184, 0.675, -7.1951222, 0.675, -20.060976, 0.675, -75.8536606, 0.0259615, 0.0159457, 0.675, -103.3536606, 0.675, -253.3536682, 0.675, -1.8902439, 0.0259615, -0.2875257, 0.675, 166.7682953, 0.675, 28.2926826, 0.675, -372.012207, , , , , , , , , , , , , , , , , , , , , , 
0.0264808, -0.0767071, 0.6885, -172.0731812, 0.6885, -287.6219482, 0.6885, -47.1341476, 0.0264808, 0.0557259, 0.6885, 486.0365906, 0.6885, -408.1097717, 0.6885, -43.2317085, 0.0264808, 0.0263523, 0.6885, -50.3048782, 0.6885, -31.7682934, 0.6885, -11.8902445, 0.0264808, 0.0213169, 0.6885, -365.7926941, 0.6885, 203.2317047, 0.6885, 17.0731716, 0.0264808, -0.0323949, 0.6885, 153.1707306, 0.6885, -101.4024429, 0.6885, -180.1829376, 0.0264808, 0.2140078, 0.6885, -11.5853662, 0.6885, -33.5365868, 0.6885, -75.3658524, 0.0264808, 0.0105745, 0.6885, 0, 0.6885, 0, 0.6885, 0, 0.0264808, -0.2252537, 0.6885, 149.9390259, 0.6885, 195.4268341, 0.6885, -387.1341553, , , , , , , , , , , , , , , , , , , , , , 
0.027, -0.0565652, 0.702, -198.6585388, 0.702, -177.1341553, 0.702, 36.5853653, 0.027, 0.0696574, 0.702, 417.5609741, 0.702, -536.1585693, 0.702, -14.8780489, 0.027, 0.0082246, 0.702, -30.3658543, 0.702, -84.3902435, 0.702, 88.4756088, 0.027, 0.061265, 0.702, -366.3414612, 0.702, 189.4512177, 0.702, 68.2317123, 0.027, -0.0310521, 0.702, 62.3170738, 0.702, -116.646347, 0.702, -141.2195129, 0.027, 0.3105211, 0.702, -67.68293, 0.702, -65, 0.702, -24.2073174, 0.027, 0.0015106, 0.702, -77.3170776, 0.702, -137.0121918, 0.702, 43.9634171, 0.027, -0.0958419, 0.702, 109.4512253, 0.702, 56.7682953, 0.702, -420.73172, , , , , , , , , , , , , , , , , , , , , , 
0.0275192, -0.0276951, 0.7155, -282.3780518, 0.7155, 55.0609779, 0.7155, 15.4878054, 0.0275192, 0.0834211, 0.7155, 166.1585388, 0.7155, -183.5975647, 0.7155, 85, 0.0275192, -0.0092317, 0.7155, 20.7926826, 0.7155, -115.9146347, 0.7155, 131.9512177, 0.0275192, 0.1015488, 0.7155, -354.8170776, 0.7155, 224.6951294, 0.7155, 38.9634171, 0.0275192, -0.0310521, 0.7155, 22.560976, 0.7155, -50.8536606, 0.7155, -61.5243912, 0.0275192, 0.323949, 0.7155, -92.9878082, 0.7155, -88.9634171, 0.7155, 37.2560997, 0.0275192, -0.0095674, 0.7155, -42.8048782, 0.7155, -23.1097565, 0.7155, 49.8170738, 0.0275192, 0.0075532, 0.7155, 126.646347, 0.7155, 2.6829269, 0.7155, -351.7683105, , , , , , , , , , , , , , , , , , , , , , 
0.0280385, 0.0105745, 0.729, -176.0365906, 0.729, 432.0731812, 0.729, 8.6585369, 0.0280385, 0.1005417, 0.729, -86.646347, 0.729, 337.5, 0.729, 115.18293, 0.0280385, -0.0209812, 0.729, 55.7926826, 0.729, -116.646347, 0.729, 43.9634171, 0.0280385, 0.1406577, 0.729, -320.8536682, 0.729, 168.0487823, 0.729, -37.6829262, 0.0280385, -0.0297093, 0.729, 25.6097565, 0.729, 66.3414612, 0.729, 13.6585369, 0.0280385, 0.2539559, 0.729, -73.4756088, 0.729, -104.0853653, 0.729, 53.4756126, 0.0280385, -0.0206455, 0.729, -37.3780479, 0.729, 10, 0.729, 56.2195129, 0.0280385, -0.0045319, 0.729, 201.7682953, 0.729, 193.7195129, 0.729, -211.1585388, , , , , , , , , , , , , , , , , , , , , , 
0.0285577, 0.036759, 0.7425, -46.5853653, 0.7425, 531.5244141, 0.7425, 13.5975609, 0.0285577, 0.121355, 0.7425, -52.6219521, 0.7425, 274.2073364, 0.7425, 137.9268341, 0.0285577, -0.0256809, 0.7425, 34.6341476, 0.7425, -117.9878082, 0.7425, -28.780489, 0.0285577, 0.1233692, 0.7425, -123.7195129, 0.7425, 37.5, 0.7425, -33.5975609, 0.0285577, -0.0270237, 0.7425, 21.280489, 0.7425, 125.6707382, 0.7425, 42.9268303, 0.0285577, 0.2116579, 0.7425, 12.3170738, 0.7425, -139.4512177, 0.7425, 37.9878044, 0.0285577, -0.0310521, 0.7425, -35.3048782, 0.7425, 82.8658524, 0.7425, 57.9878044, 0.0285577, -0.0693217, 0.7425, 60.7926826, 0.7425, 32.7439041, 0.7425, -96.8902435, , , , , , , , , , , , , , , , , , , , , , 
0.0290769, 0.0446479, 0.756, 75.3048782, 0.756, 114.6341476, 0.756, -135.9146423, 0.0290769, 0.142504, 0.756, -32.3780479, 0.756, 28.841465, 0.756, 215.0609741, 0.0290769, -0.0216526, 0.756, 35.4878044, 0.756, -95.4878082, 0.756, -39.5731735, 0.0290769, 0.0656291, 0.756, -43.7804871, 0.756, -84.8780518, 0.756, 83.8414688, 0.0290769, -0.0246738, 0.756, 24.3292694, 0.756, 162.0121918, 0.756, 22.6219521, 0.0290769, 0.1938659, 0.756, 34.8170738, 0.756, -97.9878082, 0.756, 28.5365868, 0.0290769, -0.0421302, 0.756, -36.8902435, 0.756, 91.9512253, 0.756, 48.5975609, 0.0290769, -0.0975204, 0.756, -102.5, 0.756, -386.4634094, 0.756, -114.6951218, , , , , , , , , , , , , , , , , , , , , , 
0.0295962, 0.0421302, 0.7695, 51.5853653, 0.7695, -238.5975647, 0.7695, -267.012207, 0.0295962, 0.1660029, 0.7695, -160.1829376, 0.7695, -10.3658543, 0.7695, 222.5609741, 0.0295962, -0.0109102, 0.7695, 32.9268303, 0.7695, -24.2682934, 0.7695, -18.8414631, 0.0295962, 0.0270237, 0.7695, -49.0243912, 0.7695, -224.146347, 0.7695, 70.4878082, 0.0295962, -0.0229953, 0.7695, 78.6585388, 0.7695, 47.1341476, 0.7695, -12.0731707, 0.0295962, 0.1126268, 0.7695, 16.3414631, 0.7695, -14.0853662, 0.7695, 38.5975609, 0.0295962, -0.0565652, 0.7695, -61.9512215, 0.7695, -2.195122, 0.7695, 52.6829262, 0.0295962, -0.0746929, 0.7695, -93.4146347, 0.7695, -423.4146423, 0.7695, -95.6097565, , , , , , , , , , , , , , , , , , , , , , 
0.0301154, 0.0428016, 0.783, -1.6463414, 0.783, 24.5121956, 0.783, -219.3902435, 0.0301154, 0.1918517, 0.783, -214.2682953, 0.783, 89.6341476, 0.783, 194.3292694, 0.0301154, 0.0031891, 0.783, 14.5121956, 0.783, 39.3902435, 0.783, 12.4390249, 0.0301154, 0.0191348, 0.783, -27.6219521, 0.783, -253.3536682, 0.783, -55.5487823, 0.0301154, -0.0218204, 0.783, 92.7439041, 0.783, -85.1219559, 0.783, -51.0365868, 0.0301154, 0.0090639, 0.783, 0.9756098, 0.783, 65.18293, 0.783, 45.1829262, 0.0301154, -0.0713359, 0.783, -93.0487823, 0.783, -57.5609779, 0.783, 33.841465, 0.0301154, -0.0337377, 0.783, 5.0609756, 0.783, -137.3780518, 0.783, -8.4146347, , , , , , , , , , , , , , , , , , , , , , 
0.0306346, 0.047837, 0.7965, 40.2439041, 0.7965, 125.9146347, 0.7965, -170.7926941, 0.0306346, 0.2153506, 0.7965, -221.0365906, 0.7965, 125.1219559, 0.7965, 167.1341553, 0.0306346, 0.010071, 0.7965, 5.2439027, 0.7965, 83.8414688, 0.7965, 10.1219511, 0.0306346, 0.0271916, 0.7965, -17.6829281, 0.7965, -110.9146347, 0.7965, -143.9024353, 0.0306346, -0.0203098, 0.7965, 79.8780518, 0.7965, -139.7561035, 0.7965, -57.4390259, 0.0306346, -0.0196384, 0.7965, 10.9146347, 0.7965, 104.5121994, 0.7965, 42.7439041, 0.0306346, -0.0834211, 0.7965, -122.68293, 0.7965, -176.4024506, 0.7965, 0.8536586, 0.0306346, 0.0010071, 0.7965, 146.4634247, 0.7965, -9.7560978, 0.7965, 69.7560959, , , , , , , , , , , , , , , , , , , , , , 
0.0311538, 0.0475013, 0.81, 135.2439117, 0.81, 43.2926826, 0.81, -181.2195129, 0.0311538, 0.2301213, 0.81, -226.646347, 0.81, 60.3048782, 0.81, 102.3780518, 0.0311538, 0.0078889, 0.81, -22.1341476, 0.81, 78.0487823, 0.81, -10.9756098, 0.0311538, 0.0441444, 0.81, -50, 0.81, -49.0853653, 0.81, -177.4390259, 0.0311538, -0.0176242, 0.81, 87.68293, 0.81, -138.7804871, 0.81, -63.3536606, 0.0311538, 0.023331, 0.81, 34.3902435, 0.81, 66.3414612, 0.81, 7.9878049, 0.0311538, -0.0897993, 0.81, -105.9756088, 0.81, -143.9024353, 0.81, 49.5121956, 0.0311538, 0.0364233, 0.81, 172.3170776, 0.81, -18.9634151, 0.81, 34.7560997, , , , , , , , , , , , , , , , , , , , , , 
0.0316731, 0.0411231, 0.8235, 206.4634247, 0.8235, -72.0121994, 0.8235, -182.0731812, 0.0316731, 0.2348211, 0.8235, -203.8414612, 0.8235, -60.6707344, 0.8235, 29.7560978, 0.0316731, -0.0016785, 0.8235, -13.5975609, 0.8235, -42.8048782, 0.8235, -6.5853658, 0.0316731, 0.0720073, 0.8235, -92.4390259, 0.8235, -26.1585369, 0.8235, -222.1341553, 0.0316731, -0.0149386, 0.8235, 127.7439041, 0.8235, -83.0487823, 0.8235, -88.3536606, 0.0316731, 0.0495155, 0.8235, 0.4878049, 0.8235, -36.8292694, 0.8235, -17.7439022, 0.0316731, -0.0955062, 0.8235, -102.9268341, 0.8235, -85.4268341, 0.8235, 85.2439041, 0.0316731, 0.0649577, 0.8235, 205.4268341, 0.8235, -13.5365858, 0.8235, 3.6585367, , , , , , , , , , , , , , , , , , , , , , 
0.0321923, 0.0374304, 0.837, 240.2439117, 0.837, -110.9756088, 0.837, -161.0365906, 0.0321923, 0.2324712, 0.837, -194.0243988, 0.837, -102.7439041, 0.837, -6.8292685, 0.0321923, -0.0095674, 0.837, 8.2317076, 0.837, -230.73172, 0.837, 4.8170733, 0.0321923, 0.0825818, 0.837, -97.0121994, 0.837, 68.1707306, 0.837, -265.0609741, 0.0321923, -0.014435, 0.837, 151.0365906, 0.837, -41.2195129, 0.837, -103.4146347, 0.0321923, 0.0213169, 0.837, -12.4390249, 0.837, -196.4024506, 0.837, -36.0365868, 0.0321923, -0.0988632, 0.837, -96.2804871, 0.837, -114.5731735, 0.837, 84.146347, 0.0321923, 0.0555581, 0.837, 253.2926941, 0.837, 63.1097565, 0.837, -12.560976, , , , , , , , , , , , , , , , , , , , , , 
0.0327115, 0.0387732, 0.8505, 217.9878082, 0.8505, -96.8292694, 0.8505, -141.0975647, 0.0327115, 0.2187076, 0.8505, -177.3780518, 0.8505, -94.7561035, 0.8505, -33.2317085, 0.0327115, -0.0115816, 0.8505, 21.4024391, 0.8505, -369.9390259, 0.8505, 4.7560978, 0.0327115, 0.0448157, 0.8505, -94.8170776, 0.8505, 87.1951218, 0.8505, -291.1585388, 0.0327115, -0.0139315, 0.8505, 141.7073212, 0.8505, -12.9268293, 0.8505, -114.8170776, 0.0327115, -0.0015106, 0.8505, -5.1219511, 0.8505, -366.7683105, 0.8505, -39.3902435, 0.0327115, -0.096849, 0.8505, 0, 0.8505, 0, 0.8505, 0, 0.0327115, 0.0303807, 0.8505, 304.1463623, 0.8505, 111.4024429, 0.8505, 2.4390244, , , , , , , , , , , , , , , , , , , , , , 
0.0332308, 0.0352483, 0.864, 163.7804871, 0.864, -63.841465, 0.864, -114.3292694, 0.0332308, 0.1911803, 0.864, -166.8292694, 0.864, -136.4634247, 0.864, -53.1707344, 0.0332308, -0.0109102, 0.864, 33.4756088, 0.864, -400.0609741, 0.864, -4.8780489, 0.0332308, 0.0005035, 0.864, -91.5243912, 0.864, 52.0121956, 0.864, -308.5975647, 0.0332308, -0.0115816, 0.864, 118.2926865, 0.864, -14.1463413, 0.864, -123.3536606, 0.0332308, 0.0246738, 0.864, 12.3780489, 0.864, -383.4756165, 0.864, -12.9268293, 0.0332308, -0.0861067, 0.864, -63.6585388, 0.864, -60.7317085, 0.864, 91.2804871, 0.0332308, 0.0387732, 0.864, 335, 0.864, 94.5121994, 0.864, 40.0609779, , , , , , , , , , , , , , , , , , , , , , 
0.03375, 0.0171206, 0.8775, 152.4390259, 0.8775, -43.2926826, 0.8775, -124.146347, 0.03375, 0.1535821, 0.8775, -215.5487823, 0.8775, -216.8902435, 0.8775, -41.2195129, 0.03375, -0.0119173, 0.8775, 38.7195129, 0.8775, -281.1585388, 0.8775, -4.5121951, 0.03375, 0.0085603, 0.8775, -98.3536606, 0.8775, -94.9390259, 0.8775, -317.9878235, 0.03375, -0.0092317, 0.8775, 105.2439041, 0.8775, -48.3536606, 0.8775, -114.3292694, 0.03375, 0.0642863, 0.8775, 12.8048782, 0.8775, -327.8658752, 0.8775, 2.2560976, 0.03375, -0.0730144, 0.8775, -75.5487823, 0.8775, -41.4634171, 0.8775, 84.3902435, 0.03375, 0.0548867, 0.8775, 326.0365906, 0.8775, -26.0365868, 0.8775, 76.4634171, , , , , , , , , , , , , , , , , , , , , , 
0.0342692, -0.0036927, 0.891, 156.5243988, 0.891, -54.2073174, 0.891, -139.4512177, 0.0342692, 0.103563, 0.891, -292.012207, 0.891, -164.146347, 0.891, 20.6097565, 0.0342692, -0.0130922, 0.891, 26.7682934, 0.891, -119.2682953, 0.891, 17.0731716, 0.0342692, 0.0491798, 0.891, -124.5121994, 0.891, -214.2073212, 0.891, -305.3658752, 0.0342692, -0.008896, 0.891, 78.0487823, 0.891, -68.4146347, 0.891, -81.8902435, 0.0342692, 0.0535439, 0.891, -5.4268293, 0.891, -164.7561035, 0.891, 18.9024391, 0.0342692, -0.0599222, 0.891, 0, 0.891, 0, 0.891, 0, 0.0342692, 0.0421302, 0.891, 311.5243835, 0.891, -183.5975647, 0.891, 71.5243912, , , , , , , , , , , , , , , , , , , , , , 
0.0347885, -0.0035248, 0.9045, 182.5609741, 0.9045, -109.3292694, 0.9045, -163.7804871, 0.0347885, 0.0381018, 0.9045, -371.0975647, 0.9045, -68.6585388, 0.9045, 87.0121994, 0.0347885, -0.01561, 0.9045, 27.2560978, 0.9045, 1.0365853, 0.9045, 45.6097565, 0.0347885, 0.0837568, 0.9045, -137.9268341, 0.9045, -262.5, 0.9045, -281.5853577, 0.0347885, -0.0115816, 0.9045, 51.2195129, 0.9045, -77.8658524, 0.9045, -56.341465, 0.0347885, -0.0045319, 0.9045, -29.3902454, 0.9045, -11.4024391, 0.9045, 30.5487804, 0.0347885, -0.0446479, 0.9045, 0, 0.9045, 0, 0.9045, 0, 0.0347885, 0.0320592, 0.9045, 283.4756165, 0.9045, -247.4390259, 0.9045, 50.4268303, , , , , , , , , , , , , , , , , , , , , , 
0.0353077, 0.0092317, 0.918, 225.9756165, 0.918, -100.8536606, 0.918, -168.8414612, 0.0353077, -0.0354162, 0.918, -386.5853882, 0.918, -55.2439041, 0.918, 128.6585388, 0.0353077, -0.021149, 0.918, 29.7560978, 0.918, 48.5975609, 0.918, 83.0487823, 0.0353077, 0.0891279, 0.918, -136.0365906, 0.918, -251.0975647, 0.918, -253.7804871, 0.0353077, -0.01561, 0.918, 56.8292694, 0.918, -63.5975609, 0.918, -64.5121994, 0.0353077, -0.0548867, 0.918, -74.7560959, 0.918, 79.9390259, 0.918, 41.9512215, 0.0353077, -0.0258488, 0.918, 0, 0.918, 0, 0.918, 0, 0.0353077, 0.043473, 0.918, 273.1707458, 0.918, -271.1585388, 0.918, 40.3048782, , , , , , , , , , , , , , , , , , , , , , 
0.0358269, 0.0196384, 0.9315, 217.5, 0.9315, -10.6707315, 0.9315, -186.1585388, 0.0358269, -0.0923171, 0.9315, -362.6219482, 0.9315, -8.5365858, 0.9315, 125.9756165, 0.0358269, -0.0270237, 0.9315, 19.5731716, 0.9315, 1.2804878, 0.9315, 79.6341476, 0.0358269, 0.070161, 0.9315, -141.5243988, 0.9315, -236.8292694, 0.9315, -244.8170776, 0.0358269, -0.0179599, 0.9315, 70.4878082, 0.9315, -48.1707344, 0.9315, -91.2195129, 0.0358269, -0.0770428, 0.9315, -85.0609741, 0.9315, 50.1829262, 0.9315, 30.5487804, 0.0358269, -0.0048676, 0.9315, -64.0853653, 0.9315, -125.5487823, 0.9315, 53.4756126, 0.0358269, 0.0629435, 0.9315, 277.5609741, 0.9315, -268.23172, 0.9315, 25.3048782, , , , , , , , , , , , , , , , , , , , , , 
0.0363462, 0.0251774, 0.945, 221.4634247, 0.945, 48.4756126, 0.945, -195.5487823, 0.0363462, -0.110277, 0.945, -358.6585388, 0.945, 49.2682953, 0.945, 49.3292694, 0.0363462, -0.0287022, 0.945, 20.5487804, 0.945, -53.2317085, 0.945, 58.841465, 0.0363462, 0.0495155, 0.945, -117.0121994, 0.945, -157.5609741, 0.945, -242.1951294, 0.0363462, -0.0179599, 0.945, 92.1341476, 0.945, -61.5853691, 0.945, -110.0609818, 0.0363462, -0.0887922, 0.945, -45.8536606, 0.945, -71.2804871, 0.945, 23.8414631, 0.0363462, 0.0137636, 0.945, -60.4268303, 0.945, -70.9146347, 0.945, 64.5121994, 0.0363462, 0.0864424, 0.945, 266.3414612, 0.945, -145, 0.945, 33.5365868, , , , , , , , , , , , , , , , , , , , , , 
0.0368654, 0.0223239, 0.9585, 251.2195129, 0.9585, -70.0609741, 0.9585, -185.9146423, 0.0368654, -0.1038987, 0.9585, -348.5975647, 0.9585, 39.5121956, 0.9585, 6.280488, 0.0368654, -0.0270237, 0.9585, 50.7317085, 0.9585, -169.3292694, 0.9585, 31.7073174, 0.0368654, 0.0424659, 0.9585, -84.6341476, 0.9585, -71.4024429, 0.9585, -238.7804871, 0.0368654, -0.0172885, 0.9585, 98.1097565, 0.9585, -54.6951218, 0.9585, -94.9390259, 0.0368654, -0.1038987, 0.9585, -25.6707325, 0.9585, -207.7439117, 0.9585, 38.0487823, 0.0368654, 0.0270237, 0.9585, -70.7317123, 0.9585, -85.4268341, 0.9585, 54.4512215, 0.0368654, 0.1136339, 0.9585, 247.3170776, 0.9585, -22.9878063, 0.9585, 45.9146347, , , , , , , , , , , , , , , , , , , , , , 
0.0373846, 0.0167849, 0.972, 281.2195129, 0.972, -140.1219482, 0.972, -210.1219635, 0.0373846, -0.0971847, 0.972, -284.1463623, 0.972, -92.1951218, 0.972, -41.8902435, 0.0373846, -0.0236667, 0.972, 72.3780518, 0.972, -232.8048859, 0.972, 26.0975609, 0.0373846, 0.0323949, 0.972, -52.0731735, 0.972, 1.2195122, 0.972, -231.4024506, 0.0373846, -0.01561, 0.972, 88.2926865, 0.972, -38.7804871, 0.972, -80.0609741, 0.0373846, -0.1163195, 0.972, -24.8170738, 0.972, -254.9390259, 0.972, 43.2926826, 0.0373846, 0.0354162, 0.972, -73.2926865, 0.972, -93.8414688, 0.972, 48.4756126, 0.0373846, 0.1324331, 0.972, 237.8048859, 0.972, 46.4634171, 0.972, 66.0975647, , , , , , , , , , , , , , , , , , , , , , 
0.0379038, 0.0127565, 0.9855, 251.5243988, 0.9855, -136.9512177, 0.9855, -233.5365906, 0.0379038, -0.1012131, 0.9855, -241.8292694, 0.9855, -240.5487823, 0.9855, -9.0853662, 0.0379038, -0.0198062, 0.9855, 71.7073212, 0.9855, -202.0731812, 0.9855, 31.7682934, 0.0379038, 0.0065461, 0.9855, -12.8658543, 0.9855, 51.0975609, 0.9855, -224.8780518, 0.0379038, -0.0140993, 0.9855, 63.9024391, 0.9855, 2.1341465, 0.9855, -53.4756126, 0.0379038, -0.1237049, 0.9855, -43.9024391, 0.9855, -182.9878082, 0.9855, 36.1585388, 0.0379038, 0.0394446, 0.9855, -60.2439041, 0.9855, -58.4146347, 0.9855, 64.6951218, 0.0379038, 0.1320974, 0.9855, 224.8170776, 0.9855, 77.68293, 0.9855, 83.4146347, , , , , , , , , , , , , , , , , , , , , , 
0.0384231, 0.0063783, 0.999, 244.512207, 0.999, -191.0975647, 0.999, -239.7561035, 0.0384231, -0.1176623, 0.999, -246.4024506, 0.999, -178.3536682, 0.999, 50, 0.0384231, -0.0176242, 0.999, 41.7682953, 0.999, -128.1097565, 0.999, 52.4390259, 0.0384231, -0.023331, 0.999, 198.4146423, 0.999, -172.9268341, 0.999, -121.2195129, 0.0384231, -0.0149386, 0.999, 54.5731735, 0.999, 14.0243902, 0.999, -58.2317085, 0.0384231, -0.1344472, 0.999, -52.1341476, 0.999, -82.9268341, 0.999, 22.439024, 0.0384231, 0.0394446, 0.999, -48.6585388, 0.999, -47.8658562, 0.999, 85.0609741, 0.0384231, 0.1176623, 0.999, 158.7804871, 0.999, 25.5487804, 0.999, 162.0121918, , , , , , , , , , , , , , , , , , , , , , 
0.0389423, 0.0010071, 1.0125, 500.5487976, 1.0125, -241.4024506, 1.0125, -23.1707325, 0.0389423, -0.1351186, 1.0125, -122.4390259, 1.0125, 130.36586, 1.0125, -52.4390259, 0.0389423, -0.0203098, 1.0125, 34.5731697, 1.0125, -101.8292694, 1.0125, 55.1219521, 0.0389423, -0.0250095, 1.0125, 39.7560997, 1.0125, 279.6341553, 1.0125, 202.5, 0.0389423, -0.0162814, 1.0125, 71.4634171, 1.0125, -75.3048782, 1.0125, -102.68293, 0.0389423, -0.1433433, 1.0125, -54.0853653, 1.0125, -72.9268341, 1.0125, 27.8048782, 0.0389423, 0.0387732, 1.0125, -33.1707306, 1.0125, -63.5975609, 1.0125, 144.9390259, 0.0389423, 0.1111162, 1.0125, -243.5975647, 1.0125, -625.975647, 1.0125, -222.9268341, , , , , , , , , , , , , , , , , , , , , , 
0.0394615, 0.0065461, 1.026, -48.0487823, 1.026, -106.2804871, 1.026, 4.6341462, 0.0394615, -0.1472038, 1.026, 210.36586, 1.026, -91.2195129, 1.026, -105.4878082, 0.0394615, -0.0256809, 1.026, 30.6707325, 1.026, -74.9390259, 1.026, 38.841465, 0.0394615, -0.0028534, 1.026, -145.7317047, 1.026, -340.3049011, 1.026, 255.6707306, 0.0394615, -0.0179599, 1.026, 67.3170776, 1.026, -87.5609741, 1.026, -179.0243988, 0.0394615, -0.1384756, 1.026, -38.7195129, 1.026, -71.9512177, 1.026, 36.4024391, 0.0394615, 0.0417945, 1.026, 13.2926836, 1.026, -145.5487823, 1.026, 141.2195129, 0.0394615, 0.0988632, 1.026, -406.6463623, 1.026, 332.012207, 1.026, -199.512207, , , , , , , , , , , , , , , , , , , , , , 
0.0399808, 0.01561, 1.0395, -87.6219559, 1.0395, -141.7682953, 1.0395, -30, 0.0399808, -0.1508965, 1.0395, 6.3414636, 1.0395, -322.6829224, 1.0395, 121.0365906, 0.0399808, -0.0287022, 1.0395, 20.7926826, 1.0395, -34.2073174, 1.0395, 37.8048782, 0.0399808, -0.0097353, 1.0395, -84.5121994, 1.0395, -83.3536606, 1.0395, 14.0853662, 0.0399808, -0.0198062, 1.0395, 15.7317076, 1.0395, 26.7682934, 1.0395, -115.9146347, 0.0399808, -0.1250477, 1.0395, -24.6341476, 1.0395, -57.5609779, 1.0395, 42.5609779, 0.0399808, 0.043473, 1.0395, 13.841464, 1.0395, -38.7804871, 1.0395, 27.8048782, 0.0399808, 0.0518654, 1.0395, 504.9390259, 1.0395, 139.2682953, 1.0395, 202.2561035, , , , , , , , , , , , , , , , , , , , , , 
0.0405, 0.018967, 1.053, -20.1219521, 1.053, -184.0243988, 1.053, 54.2073174, 0.0405, -0.1440146, 1.053, -60.4268303, 1.053, -216.5243988, 1.053, 101.2195129, 0.0405, -0.0290379, 1.053, 13.6585369, 1.053, 13.7195129, 1.053, 31.4634151, 0.0405, -0.0480049, 1.053, -186.2195129, 1.053, 26.1585369, 1.053, -324.9390259, 0.0405, -0.018967, 1.053, -35.1219521, 1.053, 63.4756126, 1.053, 10.7926836, 0.0405, -0.1287404, 1.053, -17.8658543, 1.053, 3.1097562, 1.053, 43.3536606, 0.0405, 0.0394446, 1.053, 25.7926826, 1.053, 118.6585388, 1.053, -18.4756107, 0.0405, -0.012253, 1.053, 344.6341553, 1.053, -180.9756165, 1.053, 10.1829271, , , , , , , , , , , , , , , , , , , , , , 
0.0410192, 0.0226596, 1.0665, -352.5, 1.0665, 257.8048706, 1.0665, 79.3902435, 0.0410192, -0.126894, 1.0665, 140.2439117, 1.0665, 198.7804871, 1.0665, 109.146347, 0.0410192, -0.0327306, 1.0665, 7.5609756, 1.0665, 50.4268303, 1.0665, 4.8780489, 0.0410192, -0.082414, 1.0665, -91.4634171, 1.0665, -141.5853729, 1.0665, -142.0731812, 0.0410192, -0.0172885, 1.0665, -74.2682953, 1.0665, 107.0731735, 1.0665, 56.5853653, 0.0410192, -0.1532464, 1.0665, 10.1829271, 1.0665, 34.4512215, 1.0665, 47.3780518, 0.0410192, 0.033402, 1.0665, 61.8292694, 1.0665, 169.4512177, 1.0665, -2.9268293, 0.0410192, -0.0626078, 1.0665, -160.0609741, 1.0665, -227.3780518, 1.0665, -83.1097565, , , , , , , , , , , , , , , , , , , , , , 
0.0415385, 0.0323949, 1.08, -64.3292694, 1.08, 747.7438965, 1.08, -21.2195129, 0.0415385, -0.1008774, 1.08, 89.2073212, 1.08, 616.0366211, 1.08, 58.5975609, 0.0415385, -0.0379339, 1.08, 14.5121956, 1.08, 70, 1.08, -24.9390259, 0.0415385, -0.1079271, 1.08, 42.5609779, 1.08, 247.86586, 1.08, 165.8536682, 0.0415385, -0.0152743, 1.08, -83.2926865, 1.08, 153.5365906, 1.08, 42.5, 0.0415385, -0.188159, 1.08, 29.6951218, 1.08, 59.2682953, 1.08, 47.3170738, 0.0415385, 0.026688, 1.08, 71.4024429, 1.08, 168.6585388, 1.08, 10.5487804, 0.0415385, -0.0780499, 1.08, -144.4512177, 1.08, 128.4756165, 1.08, -139.6951294, , , , , , , , , , , , , , , , , , , , , , 
0.0420577, 0.0421302, 1.0935, 81.9512177, 1.0935, 369.1463623, 1.0935, -24.5731716, 0.0420577, -0.0740215, 1.0935, -121.9512253, 1.0935, 683.9634399, 1.0935, 35.3658562, 0.0420577, -0.0384375, 1.0935, 23.3536587, 1.0935, 71.7073212, 1.0935, -35.4878044, 0.0420577, -0.1122911, 1.0935, -104.8170776, 1.0935, -163.4756165, 1.0935, -56.9512215, 0.0420577, -0.0135958, 1.0935, -62.8048782, 1.0935, 152.1951294, 1.0935, 3.2317073, 0.0420577, -0.2375067, 1.0935, 32.7439041, 1.0935, 87.9878082, 1.0935, 43.1707344, 0.0420577, 0.0184634, 1.0935, 70.7317123, 1.0935, 143.9024353, 1.0935, 25.2439022, 0.0420577, -0.0639506, 1.0935, 139.8170776, 1.0935, -9.2682924, 1.0935, -21.5243912, , , , , , , , , , , , , , , , , , , , , , 
0.0425769, 0.0451514, 1.107, 219.0853729, 1.107, 168.0487823, 1.107, -38.4756088, 0.0425769, -0.051194, 1.107, -372.5, 1.107, 214.6341553, 1.107, 6.5853658, 0.0425769, -0.0347448, 1.107, 41.5853653, 1.107, 30, 1.107, -28.7195129, 0.0425769, -0.100206, 1.107, -71.8902435, 1.107, -0.6707317, 1.107, -172.4390259, 0.0425769, -0.0124208, 1.107, -44.3902435, 1.107, 131.8902435, 1.107, -23.9634151, 0.0425769, -0.286183, 1.107, 17.2560978, 1.107, 86.7073212, 1.107, 38.7195129, 0.0425769, 0.0048676, 1.107, 0, 1.107, 0, 1.107, 0, 0.0425769, -0.0513619, 1.107, 193.6585388, 1.107, -36.8292694, 1.107, 57.1951218, , , , , , , , , , , , , , , , , , , , , , 
0.0430962, 0.0508583, 1.1205, 293.2926941, 1.1205, 84.3902435, 1.1205, -24.5121956, 0.0430962, -0.036759, 1.1205, -384.8780518, 1.1205, -78.7195129, 1.1205, -11.219512, 0.0430962, -0.0297093, 1.1205, 66.0365906, 1.1205, 2.195122, 1.1205, -6.2195125, 0.0430962, -0.0941634, 1.1205, 11.6463413, 1.1205, 76.5853653, 1.1205, -36.2195129, 0.0430962, -0.0112459, 1.1205, -36.7073174, 1.1205, 88.4756088, 1.1205, -28.2926826, 0.0430962, -0.3059892, 1.1205, -15.4878054, 1.1205, 59.0853691, 1.1205, 48.1097565, 0.0430962, -0.0112459, 1.1205, 61.4024391, 1.1205, 29.2682934, 1.1205, 38.841465, 0.0430962, -0.04448, 1.1205, 40.8536606, 1.1205, -45.5487823, 1.1205, -16.0975609, , , , , , , , , , , , , , , , , , , , , , 
0.0436154, 0.0647898, 1.134, 43.5365868, 1.134, -53.2926826, 1.134, -56.0975609, 0.0436154, -0.033402, 1.134, -167.9878082, 1.134, -77.4390259, 1.134, -66.6463394, 0.0436154, -0.0275273, 1.134, 70.3048782, 1.134, -40.6097565, 1.134, 16.7073174, 0.0436154, -0.0988632, 1.134, 11.7682934, 1.134, 49.4512215, 1.134, 50.9756126, 0.0436154, -0.0085603, 1.134, -28.1097565, 1.134, 50.6707344, 1.134, -29.1463413, 0.0436154, -0.2767834, 1.134, -34.3902435, 1.134, 6.7682929, 1.134, 56.8902435, 0.0436154, -0.0206455, 1.134, 33.2317085, 1.134, -6.4634147, 1.134, 32.3170738, 0.0436154, -0.0394446, 1.134, -36.8902435, 1.134, -4.5121951, 1.134, -42.8658562, , , , , , , , , , , , , , , , , , , , , , 
0.0441346, 0.0777142, 1.1475, -76.5853653, 1.1475, -140.36586, 1.1475, -35.2439041, 0.0441346, -0.0382696, 1.1475, 133.1707306, 1.1475, -206.2195129, 1.1475, -155.7926941, 0.0441346, -0.0229953, 1.1475, 62.3780518, 1.1475, -51.2195129, 1.1475, 26.5853672, 0.0441346, -0.0941634, 1.1475, -51.8902435, 1.1475, 2.3780489, 1.1475, -36.4634171, 0.0441346, -0.0036927, 1.1475, -12.8048782, 1.1475, -22.7439022, 1.1475, -34.6341476, 0.0441346, -0.2203861, 1.1475, -35.1219521, 1.1475, -60.9756126, 1.1475, 52.1951218, 0.0441346, -0.0236667, 1.1475, 16.4634151, 1.1475, -51.5853653, 1.1475, 20.1219521, 0.0441346, -0.0370947, 1.1475, 63.5365868, 1.1475, 51.7682953, 1.1475, -25.7926826, , , , , , , , , , , , , , , , , , , , , , 
0.0446538, 0.0762036, 1.161, 5.7926831, 1.161, -91.4634171, 1.161, 5.5487804, 0.0446538, -0.051194, 1.161, 100.3048782, 1.161, -188.7195129, 1.161, -80.7926865, 0.0446538, -0.0146029, 1.161, 38.2926826, 1.161, -29.2682934, 1.161, 40.7926826, 0.0446538, -0.0694896, 1.161, -53.7195129, 1.161, -31.6463413, 1.161, -67.9878082, 0.0446538, -0.0001678, 1.161, -20.7317085, 1.161, -55.7926826, 1.161, -37.8048782, 0.0446538, -0.164828, 1.161, -26.7073174, 1.161, -94.4512253, 1.161, 44.3292694, 0.0446538, -0.0273594, 1.161, 35.0609779, 1.161, -51.341465, 1.161, 14.8780489, 0.0446538, -0.0384375, 1.161, 80.1219559, 1.161, 16.5243912, 1.161, -33.9634171, , , , , , , , , , , , , , , , , , , , , , 
0.0451731, 0.066804, 1.1745, 94.7561035, 1.1745, -62.7439041, 1.1745, 13.4756098, 0.0451731, -0.0679789, 1.1745, -3.6585367, 1.1745, -120.8536606, 1.1745, -17.8048782, 0.0451731, -0.0035248, 1.1745, 25.6097565, 1.1745, -10.6707315, 1.1745, 39.5731735, 0.0451731, -0.0516976, 1.1745, -23.5975609, 1.1745, -29.6341476, 1.1745, -35.3048782, 0.0451731, 0.0041962, 1.1745, -46.8292694, 1.1745, -44.5731735, 1.1745, -37.1341476, 0.0451731, -0.1431754, 1.1745, -21.5243912, 1.1745, -88.5975647, 1.1745, 42.5609779, 0.0451731, -0.0344091, 1.1745, 66.7682953, 1.1745, -20.6097565, 1.1745, 17.5, 0.0451731, -0.0421302, 1.1745, 29.8780499, 1.1745, -8.2317076, 1.1745, -19.2073174, , , , , , , , , , , , , , , , , , , , , , 
0.0456923, 0.0565652, 1.188, 93.7195129, 1.188, -34.8780479, 1.188, -17.6219521, 0.0456923, -0.079057, 1.188, -51.2195129, 1.188, -21.8902435, 1.188, 5.2439027, 0.0456923, 0.0115816, 1.188, 35.6707344, 1.188, -27.4390259, 1.188, 22.439024, 0.0456923, -0.0639506, 1.188, -2.6219513, 1.188, 7.1341467, 1.188, -2.1341465, 0.0456923, 0.0077211, 1.188, -82.8048782, 1.188, -3.4756098, 1.188, -31.6463413, 0.0456923, -0.1186694, 1.188, -10.9756098, 1.188, -67.1951218, 1.188, 44.9390259, 0.0456923, -0.0453193, 1.188, 92.3780518, 1.188, 16.4024391, 1.188, 17.1951218, 0.0456923, -0.0491798, 1.188, 14.8170738, 1.188, 7.4390244, 1.188, -5.1829271, , , , , , , , , , , , , , , , , , , , , , 
0.0462115, 0.0471656, 1.2015, 78.0487823, 1.2015, -20.2439022, 1.2015, -29.9390259, 0.0462115, -0.0793927, 1.2015, -75.7926865, 1.2015, 63.7804909, 1.2015, 17.560976, 0.0462115, 0.0166171, 1.2015, 52.8048782, 1.2015, -25.9756107, 1.2015, 1.4634147, 0.0462115, -0.0894636, 1.2015, 7.1951222, 1.2015, 50.6707344, 1.2015, -12.6829271, 0.0462115, 0.0105745, 1.2015, -126.2195129, 1.2015, 54.0853653, 1.2015, -14.9390249, 0.0462115, -0.0083925, 1.2015, -2.6829269, 1.2015, -27.5, 1.2015, 55.3048782, 0.0462115, -0.0592508, 1.2015, 116.1585388, 1.2015, 71.8902435, 1.2015, 15.7926836, 0.0462115, -0.0527047, 1.2015, 15.6707325, 1.2015, 35.5487823, 1.2015, -16.0365849, , , , , , , , , , , , , , , , , , , , , , 
0.0467308, 0.0428016, 1.215, 21.7073174, 1.215, 15.8536587, 1.215, -34.6951218, 0.0467308, -0.0750286, 1.215, -102.3780518, 1.215, 55.0609779, 1.215, 17.5, 0.0467308, 0.0043641, 1.215, 73.4756088, 1.215, -31.280489, 1.215, -15.8536587, 0.0467308, -0.1008774, 1.215, 9.3292685, 1.215, 76.7073212, 1.215, -27.7439022, 0.0467308, 0.0117494, 1.215, -157.6219482, 1.215, 127.3780518, 1.215, 6.890244, 0.0467308, 0.1482109, 1.215, 0.5487805, 1.215, 7.6219516, 1.215, 63.841465, 0.0467308, -0.0659648, 1.215, 118.9634171, 1.215, 127.5, 1.215, 7.4390244, 0.0467308, -0.0381018, 1.215, 30.4878063, 1.215, 52.0731735, 1.215, -14.3292685, , , , , , , , , , , , , , , , , , , , , , 
0.04725, 0.0505226, 1.2285, 14.7560978, 1.2285, 103.1707306, 1.2285, -30.7317085, 0.04725, -0.0827497, 1.2285, -90.7317123, 1.2285, 73.7804871, 1.2285, 17.6219521, 0.04725, -0.0065461, 1.2285, 76.0975647, 1.2285, -53.1707344, 1.2285, -30.3658543, 0.04725, -0.0950027, 1.2285, 8.2317076, 1.2285, 71.4024429, 1.2285, -29.6951218, 0.04725, 0.0078889, 1.2285, -165.1829376, 1.2285, 159.2682953, 1.2285, 29.3292694, 0.04725, 0.3043107, 1.2285, 4.1463413, 1.2285, 41.341465, 1.2285, 59.5121956, 0.04725, -0.0642863, 1.2285, 100.1219559, 1.2285, 151.5243988, 1.2285, -12.6829271, 0.04725, -0.0142672, 1.2285, 29.8170738, 1.2285, 56.8292694, 1.2285, -10.2439022, , , , , , , , , , , , , , , , , , , , , , 
0.0477692, 0.0552224, 1.242, 31.4024391, 1.242, 146.0975647, 1.242, -31.280489, 0.0477692, -0.0981918, 1.242, -42.4390259, 1.242, 147.5609741, 1.242, 25.6707325, 0.0477692, -0.0041962, 1.242, 56.2804909, 1.242, -57.7439041, 1.242, -40.5487823, 0.0477692, -0.1055772, 1.242, 7.2560978, 1.242, 37.0731697, 1.242, -23.4756107, 0.0477692, 0.0052033, 1.242, -162.1951294, 1.242, 143.4146423, 1.242, 51.1585388, 0.0477692, 0.367422, 1.242, 20, 1.242, 39.2073174, 1.242, 49.6341476, 0.0477692, -0.0609293, 1.242, 93.3536606, 1.242, 155.1219482, 1.242, -28.7195129, 0.0477692, -0.011078, 1.242, 19.3902435, 1.242, 37.2560997, 1.242, -5.609756, , , , , , , , , , , , , , , , , , , , , , 
0.0482885, 0.0411231, 1.2555, 46.5243912, 1.2555, 144.3292694, 1.2555, -36.8292694, 0.0482885, -0.0988632, 1.2555, -38.2317085, 1.2555, 150.3048859, 1.2555, 19.6341476, 0.0482885, 0.0016785, 1.2555, 30.3658543, 1.2555, -26.3414631, 1.2555, -50.1219521, 0.0482885, -0.1371328, 1.2555, 2.804878, 1.2555, -2.1341465, 1.2555, -17.1951218, 0.0482885, 0.005539, 1.2555, -157.8048859, 1.2555, 112.3780518, 1.2555, 65, 0.0482885, 0.2764477, 1.2555, 49.3292694, 1.2555, 10.8536587, 1.2555, 44.5731735, 0.0482885, -0.0582437, 1.2555, 99.6951218, 1.2555, 151.0365906, 1.2555, -36.7682953, 0.0482885, -0.0251774, 1.2555, 12.9268293, 1.2555, -2.6829269, 1.2555, -5.7926831, , , , , , , , , , , , , , , , , , , , , , 
0.0488077, 0.0229953, 1.269, 43.9024391, 1.269, 136.8292694, 1.269, -21.7073174, 0.0488077, -0.0733501, 1.269, -76.4024429, 1.269, 119.2073212, 1.269, -1.9512196, 0.0488077, 0.0046998, 1.269, 16.5243912, 1.269, -3.0487804, 1.269, -69.3292694, 0.0488077, -0.1508965, 1.269, -1.5243902, 1.269, -22.3170738, 1.269, -13.2317076, 0.0488077, 0.0065461, 1.269, -144.5121918, 1.269, 83.0487823, 1.269, 70.6097565, 0.0488077, 0.105745, 1.269, 80.9756088, 1.269, -2.804878, 1.269, 44.6951218, 0.0488077, -0.0508583, 1.269, 0, 1.269, 0, 1.269, 0, 0.0488077, -0.0330663, 1.269, 10.7317076, 1.269, -18.9634151, 1.269, -5.9146342, , , , , , , , , , , , , , , , , , , , , , 
0.0493269, 0.0292058, 1.2825, 60.3048782, 1.2825, 132.5, 1.2825, 0.7926829, 0.0493269, -0.0424659, 1.2825, -107.6219559, 1.2825, 104.0853653, 1.2825, -9.8170738, 0.0493269, 0.0028534, 1.2825, 20.7926826, 1.2825, 17.2560978, 1.2825, -100.2439041, 0.0493269, -0.1399863, 1.2825, 1.6463414, 1.2825, -16.9512196, 1.2825, -13.2926836, 0.0493269, 0.0078889, 1.2825, -133.4756165, 1.2825, 76.7073212, 1.2825, 72.0121994, 0.0493269, -0.0223239, 1.2825, 107.1341476, 1.2825, 15, 1.2825, 46.4024391, 0.0493269, -0.0417945, 1.2825, 0, 1.2825, 0, 1.2825, 0, 0.0493269, -0.0357519, 1.2825, 7.1951222, 1.2825, 1.2804878, 1.2825, -6.5853658, , , , , , , , , , , , , , , , , , , , , , 
0.0498462, 0.0495155, 1.296, 61.8902435, 1.296, 110.9756088, 1.296, 2.9878049, 0.0498462, -0.0229953, 1.296, -110.4878082, 1.296, 96.0975647, 1.296, -8.2926826, 0.0498462, -0.0015106, 1.296, 24.5121956, 1.296, 28.5365868, 1.296, -130.4878082, 0.0498462, -0.1346151, 1.296, 8.841464, 1.296, 31.4634151, 1.296, -16.3414631, 0.0498462, 0.0072175, 1.296, -108.4756088, 1.296, 82.6219559, 1.296, 75.8536606, 0.0498462, -0.0290379, 1.296, 130.0609741, 1.296, 33.6585388, 1.296, 45.6707344, 0.0498462, -0.0369268, 1.296, 69.0853653, 1.296, 97.3170776, 1.296, -38.9634171, 0.0498462, -0.0636149, 1.296, 5.1219511, 1.296, 40.4268303, 1.296, -13.5975609, , , , , , , , , , , , , , , , , , , , , , 
0.0503654, 0.0616007, 1.3095, 41.341465, 1.3095, 94.8170776, 1.3095, 2.3780489, 0.0503654, -0.0152743, 1.3095, -74.2073212, 1.3095, 82.2560959, 1.3095, 0.3658537, 0.0503654, -0.0085603, 1.3095, 11.4634151, 1.3095, 51.1585388, 1.3095, -150.4878082, 0.0503654, -0.1163195, 1.3095, 13.0487804, 1.3095, 84.0243912, 1.3095, -12.3170738, 0.0503654, 0.0092317, 1.3095, -99.0853653, 1.3095, 95.0609741, 1.3095, 82.6219559, 0.0503654, 0.0199741, 1.3095, 150.7926788, 1.3095, 42.6219521, 1.3095, 37.3170738, 0.0503654, -0.0318914, 1.3095, 60.7317085, 1.3095, 102.2561035, 1.3095, -42.5, 0.0503654, -0.1378042, 1.3095, 4.0853658, 1.3095, 87.5, 1.3095, -22.8658543, , , , , , , , , , , , , , , , , , , , , , 
0.0508846, 0.0528725, 1.323, 25.3048782, 1.323, 107.3780518, 1.323, 7.9268293, 0.0508846, -0.0036927, 1.323, -5.9756098, 1.323, 91.2195129, 1.323, 1.4634147, 0.0508846, -0.0209812, 1.323, -12.5, 1.323, 74.8170776, 1.323, -165.7926941, 0.0508846, -0.0592508, 1.323, 18.5365849, 1.323, 115.7926865, 1.323, -8.2926826, 0.0508846, 0.0119173, 1.323, -105.3048782, 1.323, 112.1951218, 1.323, 96.5243912, 0.0508846, 0.0226596, 1.323, 159.8780518, 1.323, 51.0365868, 1.323, 29.9390259, 0.0508846, -0.0270237, 1.323, 56.7073174, 1.323, 134.3292694, 1.323, -51.341465, 0.0508846, -0.2180362, 1.323, 1.5243902, 1.323, 118.8414688, 1.323, -27.1341476, , , , , , , , , , , , , , , , , , , , , , 
0.0514038, 0.0219883, 1.3365, 21.6463413, 1.3365, 120.3048782, 1.3365, 20.060976, 0.0514038, 0.024506, 1.3365, 12.9878054, 1.3365, 102.6219559, 1.3365, -6.890244, 0.0514038, -0.0317235, 1.3365, -24.4512196, 1.3365, 82.9268341, 1.3365, -174.3902435, 0.0514038, -0.0270237, 1.3365, 20.7926826, 1.3365, 129.6951294, 1.3365, -6.7682929, 0.0514038, 0.0112459, 1.3365, -112.68293, 1.3365, 134.0853729, 1.3365, 111.8902435, 0.0514038, -0.0095674, 1.3365, 179.7561035, 1.3365, 85.7926865, 1.3365, 14.1463413, 0.0514038, -0.023331, 1.3365, 72.5, 1.3365, 173.9024506, 1.3365, -55.4268303, 0.0514038, -0.2573129, 1.3365, 3.0487804, 1.3365, 125.7317123, 1.3365, -29.5121956, , , , , , , , , , , , , , , , , , , , , , 
0.0519231, -0.0129244, 1.35, 29.8170738, 1.35, 126.1585388, 1.35, 34.1463432, 0.0519231, 0.0619364, 1.35, -9.2682924, 1.35, 110.1219559, 1.35, -22.1341476, 0.0519231, -0.0354162, 1.35, -38.9634171, 1.35, 99.8170776, 1.35, -192.4390259, 0.0519231, -0.0424659, 1.35, 16.0365849, 1.35, 111.0365906, 1.35, -9.0243902, 0.0519231, 0.0092317, 1.35, -114.2073212, 1.35, 157.5609741, 1.35, 121.8292694, 0.0519231, 0.0075532, 1.35, 195.6097565, 1.35, 114.8780518, 1.35, 2.6219513, 0.0519231, -0.0176242, 1.35, 90.5487823, 1.35, 207.6219635, 1.35, -55.3658562, 0.0519231, -0.2534524, 1.35, 4.390244, 1.35, 108.1097565, 1.35, -27.9878063, , , , , , , , , , , , , , , , , , , , , , 
0.0524423, -0.0263523, 1.3635, 36.2195129, 1.3635, 125.2439041, 1.3635, 38.5975609, 0.0524423, 0.0985275, 1.3635, -25.6707325, 1.3635, 114.3292694, 1.3635, -40.8536606, 0.0524423, -0.0354162, 1.3635, -40.7926826, 1.3635, 125.9146347, 1.3635, -205.1219635, 0.0524423, -0.0451514, 1.3635, 8.719512, 1.3635, 72.2560959, 1.3635, -13.2926836, 0.0524423, 0.0095674, 1.3635, -119.146347, 1.3635, 178.7195129, 1.3635, 128.7195129, 0.0524423, 0.0966812, 1.3635, 200.4878082, 1.3635, 148.9024353, 1.3635, -5.7317076, 0.0524423, -0.0139315, 1.3635, 102.7439041, 1.3635, 225.3048859, 1.3635, -54.4512215, 0.0524423, -0.1693599, 1.3635, 7.2560978, 1.3635, 64.6951218, 1.3635, -22.6829281, , , , , , , , , , , , , , , , , , , , , , 
0.0529615, -0.0115816, 1.377, 40.9756088, 1.377, 116.9512253, 1.377, 36.341465, 0.0529615, 0.131426, 1.377, -36.9512215, 1.377, 106.1585388, 1.377, -46.341465, 0.0529615, -0.036759, 1.377, -41.1585388, 1.377, 131.8902435, 1.377, -213.8414612, 0.0529615, -0.018967, 1.377, 3.9024391, 1.377, 40.2439041, 1.377, -15.4268293, 0.0529615, 0.0105745, 1.377, -116.4024429, 1.377, 173.3536682, 1.377, 138.2317047, 0.0529615, 0.1676814, 1.377, 202.1951294, 1.377, 179.8780518, 1.377, -10.2439022, 0.0529615, -0.0146029, 1.377, 91.8902435, 1.377, 213.7804871, 1.377, -62.2560997, 0.0529615, -0.0287022, 1.377, 8.841464, 1.377, 45.1829262, 1.377, -20, , , , , , , , , , , , , , , , , , , , , , 
0.0534808, 0.0117494, 1.3905, 32.9268303, 1.3905, 105.3048782, 1.3905, 26.0975609, 0.0534808, 0.1616388, 1.3905, -35.1219521, 1.3905, 105.9756088, 1.3905, -34.0853653, 0.0534808, -0.0426337, 1.3905, -48.9634171, 1.3905, 143.8414612, 1.3905, -221.646347, 0.0534808, 0.0008392, 1.3905, 6.2195125, 1.3905, 30.9146347, 1.3905, -15, 0.0534808, 0.0125887, 1.3905, -98.9024429, 1.3905, 137.3780518, 1.3905, 141.9512177, 0.0534808, 0.1270619, 1.3905, 208.8414612, 1.3905, 202.4390259, 1.3905, -10.6097565, 0.0534808, -0.0162814, 1.3905, 65.5487823, 1.3905, 179.146347, 1.3905, -79.8780518, 0.0534808, 0.0448157, 1.3905, 9.6951218, 1.3905, 26.280489, 1.3905, -15, , , , , , , , , , , , , , , , , , , , , , 
0.054, 0.0256809, 1.404, 19.939024, 1.404, 98.0487823, 1.404, 21.4634151, 0.054, 0.1782559, 1.404, -15, 1.404, 115.3048782, 1.404, -17.9268303, 0.054, -0.04448, 1.404, -63.2926826, 1.404, 192.6829376, 1.404, -212.9268341, 0.054, 0.0025177, 1.404, 8.2317076, 1.404, 32.8048782, 1.404, -15.5487804, 0.054, 0.0172885, 1.404, -71.7073212, 1.404, 101.5853653, 1.404, 133.7804871, 0.054, 0.0364233, 1.404, 206.5243988, 1.404, 237.1951294, 1.404, -12.1951218, 0.054, -0.0119173, 1.404, 36.8292694, 1.404, 142.6829376, 1.404, -95.3048782, 0.054, 0.0572366, 1.404, 9.0243902, 1.404, 29.4512196, 1.404, -9.8780489, , , , , , , , , , , , , , , , , , , , , , 
0.0545192, 0.0283665, 1.4175, 9.2682924, 1.4175, 96.4024429, 1.4175, 23.1707325, 0.0545192, 0.1790951, 1.4175, 3.7804878, 1.4175, 104.2073212, 1.4175, -15, 0.0545192, -0.0377661, 1.4175, -82.5609741, 1.4175, 224.9390259, 1.4175, -190.7317047, 0.0545192, -0.0068818, 1.4175, 10.4878054, 1.4175, 46.9512215, 1.4175, -22.439024, 0.0545192, 0.0206455, 1.4175, -40.0609779, 1.4175, 83.4756088, 1.4175, 119.3292694, 0.0545192, -0.0132601, 1.4175, 188.7195129, 1.4175, 266.0365906, 1.4175, -21.9512196, 0.0545192, -0.0035248, 1.4175, 11.7073174, 1.4175, 111.8902435, 1.4175, -100.5487823, 0.0545192, 0.0666361, 1.4175, 13.6585369, 1.4175, 39.0243912, 1.4175, -8.4756098, , , , , , , , , , , , , , , , , , , , , , 
0.0550385, 0.0276951, 1.431, 6.3414636, 1.431, 102.2561035, 1.431, 28.9634151, 0.0550385, 0.1784237, 1.431, 3.5975611, 1.431, 92.9878082, 1.431, -19.8170738, 0.0550385, -0.0323949, 1.431, -114.9390259, 1.431, 257.6219482, 1.431, -171.5853729, 0.0550385, -0.0260166, 1.431, 8.9634151, 1.431, 60.7317085, 1.431, -29.9390259, 0.0550385, 0.0231632, 1.431, -7.9878049, 1.431, 54.7560997, 1.431, 104.9390259, 0.0550385, -0.024506, 1.431, 177.3780518, 1.431, 287.6829224, 1.431, -46.0365868, 0.0550385, 0.0018463, 1.431, -6.4024391, 1.431, 87.4390259, 1.431, -97.8658524, 0.0550385, 0.0518654, 1.431, 17.3170738, 1.431, 48.4146347, 1.431, -10.9146347, , , , , , , , , , , , , , , , , , , , , , 
0.0555577, 0.0265202, 1.4445, 12.4390249, 1.4445, 104.2073212, 1.4445, 37.3780479, 0.0555577, 0.1844663, 1.4445, -7.1341467, 1.4445, 81.2195129, 1.4445, -26.5243912, 0.0555577, -0.0323949, 1.4445, -155.6097565, 1.4445, 283.2926941, 1.4445, -168.0487823, 0.0555577, -0.0451514, 1.4445, 9.6341467, 1.4445, 72.0121994, 1.4445, -29.5121956, 0.0555577, 0.0240024, 1.4445, 1.7073171, 1.4445, 33.5365868, 1.4445, 99.6951218, 0.0555577, -0.0132601, 1.4445, 180.7926941, 1.4445, 307.3170776, 1.4445, -77.68293, 0.0555577, 0.0065461, 1.4445, -21.5243912, 1.4445, 66.1585388, 1.4445, -93.7195129, 0.0555577, 0.0172885, 1.4445, 15, 1.4445, 58.7195129, 1.4445, -13.780488, , , , , , , , , , , , , , , , , , , , , , 
0.0560769, 0.0273594, 1.458, 25.7926826, 1.458, 100.2439041, 1.458, 46.0975609, 0.0560769, 0.1972229, 1.458, -13.1707315, 1.458, 82.0121994, 1.458, -29.8170738, 0.0560769, -0.0270237, 1.458, -183.0487823, 1.458, 284.6951294, 1.458, -181.8292694, 0.0560769, -0.0397803, 1.458, 11.6463413, 1.458, 82.68293, 1.458, -24.8780499, 0.0560769, 0.0246738, 1.458, 8.9634151, 1.458, -2.3170731, 1.458, 95.4268341, 0.0560769, 0.002182, 1.458, 192.5609741, 1.458, 332.9268494, 1.458, -97.1951218, 0.0560769, 0.0146029, 1.458, -35.4268303, 1.458, 55.7317085, 1.458, -87.3170776, 0.0560769, -0.0104067, 1.458, 12.4390249, 1.458, 63.7804909, 1.458, -15.2439032, , , , , , , , , , , , , , , , , , , , , , 
0.0565962, 0.0347448, 1.4715, 34.5731697, 1.4715, 91.0975647, 1.4715, 49.1463432, 0.0565962, 0.2153506, 1.4715, -16.0365849, 1.4715, 98.9634171, 1.4715, -34.3292694, 0.0565962, -0.01561, 1.4715, -180.8536682, 1.4715, 294.4512329, 1.4715, -195.6707306, 0.0565962, 0.005539, 1.4715, 11.5243902, 1.4715, 89.5731735, 1.4715, -26.8292694, 0.0565962, 0.0251774, 1.4715, 6.5853658, 1.4715, 6.4024391, 1.4715, 103.8414688, 0.0565962, -0.0199741, 1.4715, 198.3536682, 1.4715, 325.6707458, 1.4715, -99.6341476, 0.0565962, 0.0236667, 1.4715, -50.9756126, 1.4715, 68.6585388, 1.4715, -75.4268341, 0.0565962, -0.0384375, 1.4715, 16.0365849, 1.4715, 68.2317123, 1.4715, -15.6707325, , , , , , , , , , , , , , , , , , , , , , 
0.0571154, 0.0441444, 1.485, 34.3902435, 1.485, 79.8780518, 1.485, 46.2804871, 0.0571154, 0.2274357, 1.485, -14.3902445, 1.485, 101.1585388, 1.485, -34.2073174, 0.0571154, -0.0043641, 1.485, -181.9512177, 1.485, 286.7073364, 1.485, -182.7439117, 0.0571154, 0.0642863, 1.485, 9.5731707, 1.485, 85.6097565, 1.485, -33.7804871, 0.0571154, 0.0253452, 1.485, 17.9878044, 1.485, 43.9634171, 1.485, 118.9024429, 0.0571154, -0.0720073, 1.485, 200.3048859, 1.485, 300.0609741, 1.485, -104.6341476, 0.0571154, 0.0320592, 1.485, -61.7682953, 1.485, 93.1097565, 1.485, -59.2682953, 0.0571154, -0.0449836, 1.485, 21.1585369, 1.485, 68.2926865, 1.485, -15.8536587, , , , , , , , , , , , , , , , , , , , , , 
0.0576346, 0.0485084, 1.4985, 25.7926826, 1.4985, 55.3658562, 1.4985, 40.8536606, 0.0576346, 0.2197147, 1.4985, -12.2560978, 1.4985, 69.5121994, 1.4985, -33.3536606, 0.0576346, -0.0052033, 1.4985, -167.8048859, 1.4985, 207.1951294, 1.4985, -167.86586, 0.0576346, 0.0834211, 1.4985, 8.2317076, 1.4985, 82.5, 1.4985, -40.6097565, 0.0576346, 0.0246738, 1.4985, 26.1585369, 1.4985, 55.9756126, 1.4985, 122.4390259, 0.0576346, -0.0958419, 1.4985, 192.6829376, 1.4985, 239.146347, 1.4985, -102.8658524, 0.0576346, 0.0381018, 1.4985, -59.9390259, 1.4985, 112.5609818, 1.4985, -46.9512215, 0.0576346, -0.0191348, 1.4985, 25.5487804, 1.4985, 63.0487823, 1.4985, -13.1707315, , , , , , , , , , , , , , , , , , , , , , 
0.0581538, 0.043473, 1.512, 22.9878063, 1.512, 41.9512215, 1.512, 38.2317085, 0.0581538, 0.1978943, 1.512, -12.5, 1.512, 26.8902454, 1.512, -34.3902435, 0.0581538, -0.0161135, 1.512, -125.18293, 1.512, 66.6463394, 1.512, -169.146347, 0.0581538, 0.0632792, 1.512, 5.9146342, 1.512, 73.6585388, 1.512, -45.1219521, 0.0581538, 0.0213169, 1.512, 34.3292694, 1.512, 50.3048782, 1.512, 115.9146347, 0.0581538, -0.0736858, 1.512, 183.9024506, 1.512, 137.0121918, 1.512, -93.2926865, 0.0581538, 0.0399481, 1.512, -55.1219521, 1.512, 117.0731735, 1.512, -46.7073174, 0.0581538, 0.0045319, 1.512, 30.3048782, 1.512, 57.9268303, 1.512, -10.2439022, , , , , , , , , , , , , , , , , , , , , , 
0.0586731, 0.0360876, 1.5255, 17.0121956, 1.5255, 7.4390244, 1.5255, 31.7073174, 0.0586731, 0.1681849, 1.5255, -11.219512, 1.5255, -3.2926829, 1.5255, -32.8048782, 0.0586731, -0.0753643, 1.5255, -102.7439041, 1.5255, -13.9634151, 1.5255, -170.3048859, 0.0586731, 0.0495155, 1.5255, -0.9756098, 1.5255, 61.4024391, 1.5255, -50.6097565, 0.0586731, 0.0198062, 1.5255, 49.0243912, 1.5255, 41.2804871, 1.5255, 100.6707306, 0.0586731, -0.061265, 1.5255, 168.2926941, 1.5255, 23.6585369, 1.5255, -92.8048782, 0.0586731, 0.0411231, 1.5255, -57.3780518, 1.5255, 110.9756088, 1.5255, -50.0609779, 0.0586731, 0.0386053, 1.5255, 36.4634171, 1.5255, 50.3048782, 1.5255, -10.5487804, , , , , , , , , , , , , , , , , , , , , , 
0.0591923, 0.0340734, 1.539, 13.2317076, 1.539, -23.1097565, 1.539, 23.5365868, 0.0591923, 0.1418326, 1.539, -3.7195122, 1.539, -9.6341467, 1.539, -30.4878063, 0.0591923, -0.2257572, 1.539, -95.9756088, 1.539, -122.5609818, 1.539, -147.3780518, 0.0591923, 0.0602579, 1.539, -10.1829271, 1.539, 40.0609779, 1.539, -55.9756126, 0.0591923, 0.0179599, 1.539, 61.7073174, 1.539, -2.4390244, 1.539, 73.2926865, 0.0591923, -0.0820783, 1.539, 145.1219482, 1.539, -59.3902435, 1.539, -109.0853653, 0.0591923, 0.043473, 1.539, -67.7439041, 1.539, 64.3902435, 1.539, -58.7195129, 0.0591923, 0.1005417, 1.539, 38.5975609, 1.539, 45.0609779, 1.539, -11.8292685, , , , , , , , , , , , , , , , , , , , , , 
0.0597115, 0.0285344, 1.5525, 5.5487804, 1.5525, -44.5121956, 1.5525, 13.5975609, 0.0597115, 0.1193408, 1.5525, -4.0243902, 1.5525, -26.4024391, 1.5525, -28.5975609, 0.0597115, -0.2563058, 1.5525, -122.7439041, 1.5525, -138.6585388, 1.5525, -104.5731735, 0.0597115, 0.0699931, 1.5525, -21.9512196, 1.5525, 17.560976, 1.5525, -57.68293, 0.0597115, 0.017792, 1.5525, 67.8048782, 1.5525, -81.4024429, 1.5525, 34.5121956, 0.0597115, -0.1062486, 1.5525, 116.2195129, 1.5525, -107.0731735, 1.5525, -123.3536606, 0.0597115, 0.0475013, 1.5525, -87.9878082, 1.5525, -29.3292694, 1.5525, -68.8414688, 0.0597115, 0.1468681, 1.5525, 40.9756088, 1.5525, 26.3414631, 1.5525, -16.2195129, , , , , , , , , , , , , , , , , , , , , , 
0.0602308, 0.0099031, 1.566, -1.097561, 1.566, -46.9512215, 1.566, 3.5975611, 0.0602308, 0.0844282, 1.566, -8.0487804, 1.566, -41.2195129, 1.566, -30, 0.0602308, -0.1243763, 1.566, -109.3292694, 1.566, -145.4268341, 1.566, -67.0121994, 0.0602308, 0.0679789, 1.566, -36.0365868, 1.566, 7.9268293, 1.566, -57.9268303, 0.0602308, 0.0186313, 1.566, 73.8414688, 1.566, -147.2561035, 1.566, 0.1219512, 0.0602308, -0.1042344, 1.566, 74.3902435, 1.566, -125.2439041, 1.566, -105.4268341, 0.0602308, 0.0533761, 1.566, -113.9634171, 1.566, -122.0731735, 1.566, -72.2560959, 0.0602308, 0.1733883, 1.566, 47.3780518, 1.566, 6.280488, 1.566, -21.7073174, , , , , , , , , , , , , , , , , , , , , , 
0.06075, -0.0176242, 1.5795, 0.9756098, 1.5795, -36.5243912, 1.5795, 4.1463413, 0.06075, 0.0317235, 1.5795, -13.9024391, 1.5795, -34.4512215, 1.5795, -30.9146347, 0.06075, 0.0208133, 1.5795, -76.9512177, 1.5795, -144.8170776, 1.5795, -33.5975609, 0.06075, 0.0381018, 1.5795, -43.841465, 1.5795, 12.7439032, 1.5795, -57.3170738, 0.06075, 0.0166171, 1.5795, 73.9634171, 1.5795, -170.7926941, 1.5795, -17.439024, 0.06075, -0.0757, 1.5795, 39.3902435, 1.5795, -149.6951294, 1.5795, -67.5, 0.06075, 0.0562295, 1.5795, -97.1951218, 1.5795, -158.7195129, 1.5795, -53.9634171, 0.06075, 0.2046082, 1.5795, 58.3536606, 1.5795, -5.4878049, 1.5795, -32.8048782, , , , , , , , , , , , , , , , , , , , , , 
0.0612692, -0.0471656, 1.593, 4.5731707, 1.593, -16.280489, 1.593, 15, 0.0612692, -0.0162814, 1.593, -7.1341467, 1.593, -10.7926836, 1.593, -33.0487823, 0.0612692, 0.1104448, 1.593, -23.8414631, 1.593, -153.9634247, 1.593, -4.6951222, 0.0612692, -0.0206455, 1.593, -59.6951218, 1.593, 35.7926826, 1.593, -56.8292694, 0.0612692, 0.0142672, 1.593, 65.5487823, 1.593, -146.2195129, 1.593, -29.0853672, 0.0612692, -0.056733, 1.593, -4.8780489, 1.593, -150.36586, 1.593, -25.7317085, 0.0612692, 0.0495155, 1.593, -84.5731735, 1.593, -140, 1.593, -18.2317085, 0.0612692, 0.223743, 1.593, 68.7804871, 1.593, 12.560976, 1.593, -53.5975609, , , , , , , , , , , , , , , , , , , , , , 
0.0617885, -0.0740215, 1.6065, 11.8902445, 1.6065, 19.3902435, 1.6065, 28.9024391, 0.0617885, -0.047837, 1.6065, 12.0121956, 1.6065, 22.7439022, 1.6065, -36.6463432, 0.0617885, 0.1660029, 1.6065, 96.9512253, 1.6065, -151.8292694, 1.6065, 60.6707344, 0.0617885, -0.0647898, 1.6065, -70.9146347, 1.6065, 68.7804871, 1.6065, -55.2439041, 0.0617885, 0.0112459, 1.6065, 52.3170738, 1.6065, -120.0609818, 1.6065, -39.6341476, 0.0617885, -0.0775463, 1.6065, -133.4146423, 1.6065, -33.0487823, 1.6065, 34.6341476, 0.0617885, 0.0414588, 1.6065, -99.2073212, 1.6065, -90.5487823, 1.6065, 17.0121956, 0.0617885, 0.216022, 1.6065, 72.9268341, 1.6065, 56.5853653, 1.6065, -75.7926865, , , , , , , , , , , , , , , , , , , , , , 
0.0623077, -0.0834211, 1.62, 14.8780489, 1.62, 65.18293, 1.62, 42.1341476, 0.0623077, -0.0605936, 1.62, 35.6707344, 1.62, 75.3048782, 1.62, -49.2073174, 0.0623077, 0.2079652, 1.62, 83.9024429, 1.62, 0.6707317, 1.62, 105.18293, 0.0623077, -0.0706645, 1.62, -65.7926865, 1.62, 94.8170776, 1.62, -64.5121994, 0.0623077, 0.0105745, 1.62, 27.6219521, 1.62, -25.4268303, 1.62, -82.2560959, 0.0623077, -0.1022202, 1.62, -153.4146423, 1.62, 9.4512196, 1.62, 48.1097565, 0.0623077, 0.036759, 1.62, -55.7317085, 1.62, -53.5365868, 1.62, 50.3658562, 0.0623077, 0.1878233, 1.62, 63.9634171, 1.62, 124.0243912, 1.62, -79.8170776, , , , , , , , , , , , , , , , , , , , , , 
0.0628269, -0.0673075, 1.6335, -19.5731716, 1.6335, 100, 1.6335, 56.1585388, 0.0628269, -0.0669718, 1.6335, 49.7560997, 1.6335, 112.1341476, 1.6335, -53.841465, 0.0628269, 0.2331426, 1.6335, -68.9634171, 1.6335, 222.3780518, 1.6335, 50.9146347, 0.0628269, -0.0527047, 1.6335, -30.9146347, 1.6335, 134.6341553, 1.6335, -62.9268303, 0.0628269, 0.008896, 1.6335, 11.4634151, 1.6335, 12.8658543, 1.6335, -57.3170738, 0.0628269, -0.1044022, 1.6335, -33.5975609, 1.6335, 148.0487823, 1.6335, 29.5121956, 0.0628269, 0.0318914, 1.6335, 69.0853653, 1.6335, 43.6585388, 1.6335, 18.1097565, 0.0628269, 0.1206836, 1.6335, 44.4512215, 1.6335, 171.9512177, 1.6335, -62.1341476, , , , , , , , , , , , , , , , , , , , , , 
0.0633462, -0.04448, 1.647, -59.7560997, 1.647, 131.9512177, 1.647, 70.5487823, 0.0633462, -0.0726787, 1.647, 72.5609741, 1.647, 134.0243988, 1.647, -36.2195129, 0.0633462, 0.2388495, 1.647, -46.4634171, 1.647, 223.3536682, 1.647, 26.8902454, 0.0633462, -0.0350805, 1.647, 5.609756, 1.647, 186.2195129, 1.647, -36.9512215, 0.0633462, 0.0072175, 1.647, -20.1219521, 1.647, -10.9146347, 1.647, 16.3414631, 0.0633462, -0.1045701, 1.647, -32.0731697, 1.647, 239.146347, 1.647, 3.6585367, 0.0633462, 0.0270237, 1.647, 38.4756088, 1.647, 6.6463418, 1.647, -32.8048782, 0.0633462, 0.0208133, 1.647, 27.9268303, 1.647, 180.6707306, 1.647, -50.7317085, , , , , , , , , , , , , , , , , , , , , , 
0.0638654, -0.0354162, 1.6605, -71.9512177, 1.6605, 135.6097565, 1.6605, 80.2439041, 0.0638654, -0.0783856, 1.6605, 76.7073212, 1.6605, 74.1463394, 1.6605, -7.6219516, 0.0638654, 0.2306249, 1.6605, -46.1585388, 1.6605, 184.0853729, 1.6605, 93.2317123, 0.0638654, -0.0219883, 1.6605, 13.6585369, 1.6605, 205.36586, 1.6605, -29.4512196, 0.0638654, 0.006714, 1.6605, -46.8902435, 1.6605, -45.6707344, 1.6605, 40.3658562, 0.0638654, -0.1211872, 1.6605, -55.3658562, 1.6605, 172.1951294, 1.6605, -2.3170731, 0.0638654, 0.0256809, 1.6605, -11.8902445, 1.6605, -35.7926826, 1.6605, -29.2682934, 0.0638654, -0.057908, 1.6605, 23.9024391, 1.6605, 190.6097565, 1.6605, -49.0853653, , , , , , , , , , , , , , , , , , , , , , 
0.0643846, -0.0344091, 1.674, -66.8902435, 1.674, 127.6219559, 1.674, 80.3048782, 0.0643846, -0.0961776, 1.674, 73.5365906, 1.674, 46.2195129, 1.674, 7.0121951, 0.0643846, 0.1925231, 1.674, 30, 1.674, -57.1951218, 1.674, 117.3170776, 0.0643846, -0.0052033, 1.674, 15.8536587, 1.674, 197.4390259, 1.674, -39.0853653, 0.0643846, 0.0062104, 1.674, -24.8170738, 1.674, -37.8658562, 1.674, 18.1707325, 0.0643846, -0.1468681, 1.674, -116.0975647, 1.674, 16.6463413, 1.674, 25.3048782, 0.0643846, 0.0287022, 1.674, -9.1463413, 1.674, 57.5, 1.674, 26.5853672, 0.0643846, -0.0861067, 1.674, 29.3902454, 1.674, 219.0243988, 1.674, -43.9634171, , , , , , , , , , , , , , , , , , , , , , 
0.0649038, -0.0290379, 1.6875, -65.7926865, 1.6875, 115.2439041, 1.6875, 77.1951218, 0.0649038, -0.1243763, 1.6875, 57.9878044, 1.6875, 48.6585388, 1.6875, 9.1463413, 0.0649038, 0.1519036, 1.6875, 40.0609779, 1.6875, -161.2804871, 1.6875, 49.7560997, 0.0649038, 0.0142672, 1.6875, 14.8780489, 1.6875, 173.2317047, 1.6875, -52.3170738, 0.0649038, 0.0048676, 1.6875, 35.4878044, 1.6875, -25.6707325, 1.6875, -21.5853672, 0.0649038, -0.1743954, 1.6875, -70.3658524, 1.6875, -83.1097565, 1.6875, 16.7073174, 0.0649038, 0.0317235, 1.6875, -50.1219521, 1.6875, 5.1219511, 1.6875, 38.4146347, 0.0649038, -0.0807355, 1.6875, 33.9024391, 1.6875, 232.5, 1.6875, -40.3658562, , , , , , , , , , , , , , , , , , , , , , 
0.0654231, -0.0251774, 1.701, -70.0609741, 1.701, 93.0487823, 1.701, 83.5365906, 0.0654231, -0.1428397, 1.701, 54.5121956, 1.701, 79.5121994, 1.701, 1.8902439, 0.0654231, 0.121355, 1.701, 25.7317085, 1.701, -171.5853729, 1.701, -9.5731707, 0.0654231, 0.0414588, 1.701, 12.2560978, 1.701, 126.646347, 1.701, -53.4146347, 0.0654231, 0.0031891, 1.701, 68.1097565, 1.701, -36.5243912, 1.701, -49.9390259, 0.0654231, -0.193698, 1.701, -3.2926829, 1.701, -153.7195129, 1.701, -8.4146347, 0.0654231, 0.0337377, 1.701, -63.841465, 1.701, -84.5121994, 1.701, 20.6097565, 0.0654231, -0.073518, 1.701, 34.4512215, 1.701, 257.5609741, 1.701, -32.0731697, , , , , , , , , , , , , , , , , , , , , , 
0.0659423, -0.0337377, 1.7145, -73.0487823, 1.7145, 51.2195129, 1.7145, 83.5365906, 0.0659423, -0.1297475, 1.7145, 58.1707344, 1.7145, 100.0609818, 1.7145, -11.0975609, 0.0659423, 0.057908, 1.7145, 34.0853653, 1.7145, -161.7682953, 1.7145, -16.7682934, 0.0659423, 0.072343, 1.7145, -19.0243912, 1.7145, 26.5243912, 1.7145, -17.6829281, 0.0659423, 0.002182, 1.7145, 48.2926826, 1.7145, -52.2560997, 1.7145, -49.5731735, 0.0659423, -0.1908446, 1.7145, 5.7926831, 1.7145, -135.6707306, 1.7145, -4.8780489, 0.0659423, 0.0340734, 1.7145, -56.341465, 1.7145, -91.3414688, 1.7145, -10.3658543, 0.0659423, -0.0678111, 1.7145, 14.6341467, 1.7145, 236.4024506, 1.7145, -24.9390259, , , , , , , , , , , , , , , , , , , , , , 
0.0664615, -0.0458228, 1.728, -93.4146347, 1.728, 26.0975609, 1.728, 58.4756126, 0.0664615, -0.0928206, 1.728, 62.8658562, 1.728, 89.9390259, 1.728, -20.7926826, 0.0664615, 0.0332341, 1.728, 33.4756088, 1.728, -160.5487823, 1.728, -6.1585369, 0.0664615, 0.0820783, 1.728, -19.2682934, 1.728, 34.1463432, 1.728, -17.0731716, 0.0664615, 0.0005035, 1.728, 29.3292694, 1.728, -75.1219559, 1.728, -33.9024391, 0.0664615, -0.1562676, 1.728, -12.0731707, 1.728, -101.5243912, 1.728, 2.9878049, 0.0664615, 0.0330663, 1.728, -55.2439041, 1.728, -80.6707306, 1.728, -25.9756107, 0.0664615, -0.0763714, 1.728, -1.3414634, 1.728, 152.2561035, 1.728, -8.5365858, , , , , , , , , , , , , , , , , , , , , , 
0.0669808, -0.051194, 1.7415, -70.4878082, 1.7415, 25.5487804, 1.7415, 22.3170738, 0.0669808, -0.0525368, 1.7415, 65.4878082, 1.7415, 56.4024391, 1.7415, -23.4146347, 0.0669808, 0.0535439, 1.7415, 23.4756107, 1.7415, -87.3780518, 1.7415, 16.4024391, 0.0669808, 0.0683146, 1.7415, 17.0121956, 1.7415, 15.4878054, 1.7415, -23.9634151, 0.0669808, 0.0011749, 1.7415, 34.6951218, 1.7415, -94.3292694, 1.7415, -22.6829281, 0.0669808, -0.0908064, 1.7415, -17.6219521, 1.7415, -48.7804871, 1.7415, 14.8780489, 0.0669808, 0.0347448, 1.7415, -59.2682953, 1.7415, -85.4268341, 1.7415, -25.7926826, 0.0669808, -0.0874495, 1.7415, -3.0487804, 1.7415, 72.5, 1.7415, 19.2073174, , , , , , , , , , , , , , , , , , , , , , 
0.0675, -0.0505226, 1.755, -13.780488, 1.755, -15.8536587, 1.755, 5.3658538, 0.0675, -0.0172885, 1.755, 59.2073174, 1.755, 2.6219513, 1.755, -21.3414631, 0.0675, 0.0619364, 1.755, 1.9512196, 1.755, -15.3048782, 1.755, 17.8658543, 0.0675, 0.0468299, 1.755, 31.0365868, 1.755, -28.7195129, 1.755, -8.5365858, 0.0675, 0, 1.755, 45.4268303, 1.755, -96.8902435, 1.755, -21.0975609, 0.0675, -0.0169528, 1.755, -7.6829271, 1.755, 18.7195129, 1.755, 17.8048782, 0.0675, 0.0357519, 1.755, -58.841465, 1.755, -85.7317123, 1.755, -13.841464, 0.0675, -0.0699931, 1.755, -8.3536587, 1.755, -58.2317085, 1.755, 27.1951218, , , , , , , , , , , , , , , , , , , , , , 
0.0680192, -0.0505226, 1.7685, 4.4512196, 1.7685, -49.5731735, 1.7685, 8.9024391, 0.0680192, 0.01561, 1.7685, 54.0853653, 1.7685, -47.2560997, 1.7685, -18.3536587, 0.0680192, 0.0344091, 1.7685, -14.8780489, 1.7685, 48.2317085, 1.7685, 12.3170738, 0.0680192, 0.0283665, 1.7685, 24.9390259, 1.7685, -57.8048782, 1.7685, 0.6097561, 0.0680192, 0, 1.7685, 67.68293, 1.7685, -78.7804871, 1.7685, -21.3414631, 0.0680192, 0.0115816, 1.7685, -5.1219511, 1.7685, 49.6341476, 1.7685, 14.0243902, 0.0680192, 0.033402, 1.7685, -52.8658562, 1.7685, -63.6585388, 1.7685, 0.6707317, 0.0680192, -0.0246738, 1.7685, -18.9024391, 1.7685, -201.7682953, 1.7685, 2.3780489, , , , , , , , , , , , , , , , , , , , , , 
0.0685385, -0.0491798, 1.782, 0.4878049, 1.782, -81.5853653, 1.782, 12.6829271, 0.0685385, 0.0538796, 1.782, 56.7073174, 1.782, -83.9024429, 1.782, -16.2195129, 0.0685385, -0.0065461, 1.782, -15.9756098, 1.782, 75.6707306, 1.782, 8.2317076, 0.0685385, 0.0060426, 1.782, -1.5853659, 1.782, -106.7073212, 1.782, 13.9634151, 0.0685385, 0, 1.782, 72.4390259, 1.782, -34.1463432, 1.782, -15.5487804, 0.0685385, 0.0025177, 1.782, -6.4634147, 1.782, 77.1341476, 1.782, 7.1341467, 0.0685385, 0.0280308, 1.782, -48.7804871, 1.782, -33.9634171, 1.782, 3.6585367, 0.0685385, 0.0303807, 1.782, -26.9512196, 1.782, -214.3902435, 1.782, -35.6707344, , , , , , , , , , , , , , , , , , , , , , 
0.0690577, -0.0433051, 1.7955, -15.4878054, 1.7955, -117.0121994, 1.7955, 12.6829271, 0.0690577, 0.0924849, 1.7955, 55.8536606, 1.7955, -95.2439041, 1.7955, -12.0121956, 0.0690577, -0.0330663, 1.7955, -7.9878049, 1.7955, 50.1219521, 1.7955, 2.4390244, 0.0690577, -0.0099031, 1.7955, -27.9878063, 1.7955, -128.9634247, 1.7955, 18.9024391, 0.0690577, 0, 1.7955, 54.8780518, 1.7955, 3.9634147, 1.7955, 0.3048781, 0.0690577, 0.0058747, 1.7955, -3.1097562, 1.7955, 59.2682953, 1.7955, 8.4146347, 0.0690577, 0.0196384, 1.7955, -45.4878044, 1.7955, -2.1341465, 1.7955, 1.8292683, 0.0690577, 0.0894636, 1.7955, -29.8780499, 1.7955, -149.0243988, 1.7955, -62.9268303, , , , , , , , , , , , , , , , , , , , , , 
0.0695769, -0.0313878, 1.809, -36.9512215, 1.809, -134.8780518, 1.809, 6.1585369, 0.0695769, 0.1200122, 1.809, 51.2804909, 1.809, -109.8780518, 1.809, 1.2195122, 0.0695769, -0.04448, 1.809, -0.4878049, 1.809, -9.5731707, 1.809, 2.9268293, 0.0695769, -0.0146029, 1.809, -22.0121956, 1.809, -93.5975647, 1.809, 3.5975611, 0.0695769, 0, 1.809, 31.4024391, 1.809, 21.8902435, 1.809, 18.7195129, 0.0695769, 0.0181277, 1.809, -0.7317073, 1.809, 6.7073174, 1.809, 8.5975609, 0.0695769, 0.0146029, 1.809, -45, 1.809, 18.2926826, 1.809, -3.7804878, 0.0695769, 0.1310903, 1.809, -3.8414636, 1.809, -98.7804871, 1.809, -48.4756126, , , , , , , , , , , , , , , , , , , , , , 
0.0700962, -0.0124208, 1.8225, -43.1097565, 1.8225, -144.0853729, 1.8225, 1.8902439, 0.0700962, 0.1408255, 1.8225, 39.9390259, 1.8225, -123.7195129, 1.8225, 10.6097565, 0.0700962, -0.0542153, 1.8225, 5.9756098, 1.8225, -56.6463432, 1.8225, 4.0243902, 0.0700962, -0.0256809, 1.8225, -7.3170733, 1.8225, -121.2195129, 1.8225, -11.9512196, 0.0700962, 0, 1.8225, 19.4512196, 1.8225, 30.8536587, 1.8225, 31.8902454, 0.0700962, 0.0172885, 1.8225, -3.7195122, 1.8225, -35.3048782, 1.8225, 6.0975609, 0.0700962, 0.0159457, 1.8225, -45.2439041, 1.8225, 27.3780499, 1.8225, -9.4512196, 0.0700962, 0.1381399, 1.8225, 26.4024391, 1.8225, -84.7560959, 1.8225, -13.9634151, , , , , , , , , , , , , , , , , , , , , , 
0.0706154, 0.0068818, 1.836, -52.3170738, 1.836, -166.646347, 1.836, -3.1097562, 0.0706154, 0.1552605, 1.836, 31.5853672, 1.836, -137.0731812, 1.836, 10.7317076, 0.0706154, -0.0693217, 1.836, 8.9024391, 1.836, -59.0853691, 1.836, -1.7682927, 0.0706154, -0.030045, 1.836, 1.5243902, 1.836, -147.0121918, 1.836, -19.1463413, 0.0706154, 0, 1.836, 21.4024391, 1.836, 36.0975609, 1.836, 37.0731697, 0.0706154, -0.002182, 1.836, -0.7926829, 1.836, -39.0243912, 1.836, 5.3658538, 0.0706154, 0.0176242, 1.836, 0, 1.836, 0, 1.836, 0, 0.0706154, 0.1300832, 1.836, 32.1341476, 1.836, -79.7560959, 1.836, 2.6219513, , , , , , , , , , , , , , , , , , , , , , 
0.0711346, 0.0199741, 1.8495, -60.4878044, 1.8495, -162.3780518, 1.8495, -0.1219512, 0.0711346, 0.1623102, 1.8495, 30.9146347, 1.8495, -148.5975647, 1.8495, 3.3536587, 0.0711346, -0.0896315, 1.8495, 7.7439027, 1.8495, -30.3658543, 1.8495, -5.609756, 0.0711346, -0.002182, 1.8495, 6.2195125, 1.8495, -101.4634171, 1.8495, -18.2926826, 0.0711346, 0, 1.8495, 27.8048782, 1.8495, 40.4268303, 1.8495, 34.7560997, 0.0711346, -0.038941, 1.8495, 3.7195122, 1.8495, -12.5, 1.8495, 9.5731707, 0.0711346, 0.0159457, 1.8495, -40.5487823, 1.8495, 43.4756126, 1.8495, -5.4268293, 0.0711346, 0.1203479, 1.8495, 31.280489, 1.8495, -86.2195129, 1.8495, 26.1585369, , , , , , , , , , , , , , , , , , , , , , 
0.0716538, 0.0229953, 1.863, -56.1585388, 1.863, -122.1951218, 1.863, 6.890244, 0.0716538, 0.1562676, 1.863, 32.1951218, 1.863, -144.0853729, 1.863, -7.8658538, 0.0716538, -0.1092699, 1.863, 2.3170731, 1.863, 3.1097562, 1.863, -0.1829268, 0.0716538, 0.0179599, 1.863, 20.060976, 1.863, -53.841465, 1.863, -16.8292694, 0.0716538, 0, 1.863, 28.9024391, 1.863, 43.9024391, 1.863, 29.3292694, 0.0716538, -0.0763714, 1.863, -0.0609756, 1.863, 23.5975609, 1.863, 13.2926836, 0.0716538, 0.0097353, 1.863, -40.6097565, 1.863, 43.9024391, 1.863, 1.8902439, 0.0716538, 0.0948348, 1.863, 21.2195129, 1.863, -61.0365868, 1.863, 41.2804871, , , , , , , , , , , , , , , , , , , , , , 
0.0721731, 0.0162814, 1.8765, -44.3902435, 1.8765, -70.3048782, 1.8765, 12.4390249, 0.0721731, 0.1327687, 1.8765, 36.4634171, 1.8765, -123.1097565, 1.8765, -18.5365849, 0.0721731, -0.1257191, 1.8765, -2.1341465, 1.8765, 23.6585369, 1.8765, 7.1951222, 0.0721731, -0.0149386, 1.8765, 36.5853653, 1.8765, 0, 1.8765, -20.3658543, 0.0721731, 0, 1.8765, 24.8170738, 1.8765, 46.2195129, 1.8765, 24.5121956, 0.0721731, -0.0817426, 1.8765, -6.7073174, 1.8765, 43.9634171, 1.8765, 13.9634151, 0.0721731, 0.0058747, 1.8765, -41.2195129, 1.8765, 39.7560997, 1.8765, 7.2560978, 0.0721731, 0.0391089, 1.8765, 1.7682927, 1.8765, 30.5487804, 1.8765, 53.4756126, , , , , , , , , , , , , , , , , , , , , , 
0.0726923, 0.0052033, 1.89, -33.4756088, 1.89, -35.9146347, 1.89, 17.439024, 0.0726923, 0.1012131, 1.89, 40.3048782, 1.89, -86.5243912, 1.89, -26.0365868, 0.0726923, -0.1378042, 1.89, -2.9268293, 1.89, 30.4268303, 1.89, 9.0243902, 0.0726923, -0.0713359, 1.89, 49.1463432, 1.89, 57.1341476, 1.89, -22.1951218, 0.0726923, 0, 1.89, 25.060976, 1.89, 45, 1.89, 19.6951218, 0.0726923, -0.0599222, 1.89, -9.2073174, 1.89, 46.5853653, 1.89, 14.6341467, 0.0726923, 0.0048676, 1.89, -41.4634171, 1.89, 38.3536606, 1.89, 9.9390249, 0.0726923, -0.0216526, 1.89, -14.1463413, 1.89, 54.6951218, 1.89, 46.8292694, , , , , , , , , , , , , , , , , , , , , , 
0.0732115, -0.0062104, 1.9035, -25.7317085, 1.9035, -20.7317085, 1.9035, 24.6341476, 0.0732115, 0.076875, 1.9035, 34.2682953, 1.9035, -35.5487823, 1.9035, -28.5365868, 0.0732115, -0.144686, 1.9035, -2.5609756, 1.9035, 26.7073174, 1.9035, 7.1341467, 0.0732115, -0.0757, 1.9035, 52.9878044, 1.9035, 82.68293, 1.9035, -12.2560978, 0.0732115, 0, 1.9035, 29.0243912, 1.9035, 42.1951218, 1.9035, 16.0975609, 0.0732115, -0.0431373, 1.9035, -7.0121951, 1.9035, 36.6463432, 1.9035, 13.4146347, 0.0732115, 0.0057069, 1.9035, -38.4146347, 1.9035, 38.4146347, 1.9035, 10.3658543, 0.0732115, -0.0411231, 1.9035, -21.3414631, 1.9035, 17.0121956, 1.9035, 33.2317085, , , , , , , , , , , , , , , , , , , , , , 
0.0737308, -0.0149386, 1.917, -11.4634151, 1.917, -2.3170731, 1.917, 31.341465, 0.0737308, 0.0632792, 1.917, 24.3292694, 1.917, 17.5, 1.917, -22.5, 0.0737308, -0.1579461, 1.917, -1.4634147, 1.917, 19.8780499, 1.917, 6.4024391, 0.0737308, -0.0263523, 1.917, 70.8536606, 1.917, 98.9634171, 1.917, 12.4390249, 0.0737308, 0, 1.917, 30.2439022, 1.917, 39.4512215, 1.917, 15.1829271, 0.0737308, -0.04448, 1.917, -6.5243902, 1.917, 29.4512196, 1.917, 12.560976, 0.0737308, 0.0058747, 1.917, -36.1585388, 1.917, 34.2073174, 1.917, 8.9024391, 0.0737308, -0.0438087, 1.917, -20.3658543, 1.917, 31.0365868, 1.917, 25, , , , , , , , , , , , , , , , , , , , , , 
0.07425, -0.0216526, 1.9305, 3.9634147, 1.9305, 25.1219521, 1.9305, 31.1585369, 0.07425, 0.0475013, 1.9305, 20.060976, 1.9305, 55.4268303, 1.9305, -9.2682924, 0.07425, -0.1774166, 1.9305, 2.6829269, 1.9305, 0.3048781, 1.9305, 7.3780489, 0.07425, 0.0041962, 1.9305, 99.2682953, 1.9305, 111.5853653, 1.9305, 37.9878044, 0.07425, 0, 1.9305, 29.0243912, 1.9305, 33.4756088, 1.9305, 14.4512196, 0.07425, -0.0518654, 1.9305, -6.7682929, 1.9305, 11.7682934, 1.9305, 11.219512, 0.07425, 0.0041962, 1.9305, -35.4268303, 1.9305, 29.3902454, 1.9305, 8.2926826, 0.07425, -0.0679789, 1.9305, -54.6951218, 1.9305, 96.7073212, 1.9305, 25.8536587, , , , , , , , , , , , , , , , , , , , , , 
0.0747692, -0.0176242, 1.944, 10.7926836, 1.944, 59.2073174, 1.944, 22.6219521, 0.0747692, 0.0327306, 1.944, 21.1585369, 1.944, 79.8780518, 1.944, 8.0487804, 0.0747692, -0.1884947, 1.944, 5.670732, 1.944, -18.6585369, 1.944, 8.6585369, 0.0747692, -0.0083925, 1.944, 108.7195129, 1.944, 108.7195129, 1.944, 44.6951218, 0.0747692, 0, 1.944, 24.6951218, 1.944, 27.3780499, 1.944, 12.4390249, 0.0747692, -0.0169528, 1.944, -9.3292685, 1.944, -1.0365853, 1.944, 10.4268293, 0.0747692, -0.0001678, 1.944, -32.9268303, 1.944, 25.9756107, 1.944, 7.9878049, 0.0747692, -0.1116197, 1.944, -103.0487823, 1.944, 163.5365906, 1.944, 36.8902435, , , , , , , , , , , , , , , , , , , , , , 
0.0752885, 0.0038605, 1.9575, 11.4024391, 1.9575, 81.5853653, 1.9575, 11.280488, 0.0752885, 0.0374304, 1.9575, 22.439024, 1.9575, 97.8658524, 1.9575, 25.7317085, 0.0752885, -0.1891661, 1.9575, 4.5731707, 1.9575, -17.2560978, 1.9575, 9.1463413, 0.0752885, -0.023331, 1.9575, 117.0731735, 1.9575, 87.68293, 1.9575, 53.2317085, 0.0752885, 0, 1.9575, 22.8048782, 1.9575, 20.5487804, 1.9575, 8.4146347, 0.0752885, 0.0649577, 1.9575, -10.060976, 1.9575, 0.3658537, 1.9575, 10.060976, 0.0752885, -0.0082246, 1.9575, -29.2073174, 1.9575, 22.439024, 1.9575, 7.4390244, 0.0752885, -0.1500572, 1.9575, -116.9512253, 1.9575, 178.9634247, 1.9575, 46.5243912, , , , , , , , , , , , , , , , , , , , , , 
0.0758077, 0.0287022, 1.971, 14.8170738, 1.971, 79.3292694, 1.971, 4.6341462, 0.0758077, 0.0602579, 1.971, 20.7926826, 1.971, 100.3658524, 1.971, 32.3170738, 0.0758077, -0.1861448, 1.971, 2.6219513, 1.971, -3.2926829, 1.971, 9.0853662, 0.0758077, 0.0099031, 1.971, 115.0609818, 1.971, 66.9512177, 1.971, 61.7682953, 0.0758077, 0, 1.971, 23.5975609, 1.971, 17.7439022, 1.971, 5.670732, 0.0758077, 0.1092699, 1.971, -9.4512196, 1.971, 11.1585369, 1.971, 11.0365858, 0.0758077, -0.0172885, 1.971, -29.1463413, 1.971, 20, 1.971, 6.8292685, 0.0758077, -0.1774166, 1.971, -114.2073212, 1.971, 142.86586, 1.971, 45.4878044, , , , , , , , , , , , , , , , , , , , , , 
0.0763269, 0.0411231, 1.9845, 16.7682934, 1.9845, 69.3902435, 1.9845, 4.0243902, 0.0763269, 0.0850996, 1.9845, 11.8902445, 1.9845, 92.0121994, 1.9845, 36.4634171, 0.0763269, -0.1841306, 1.9845, 2.804878, 1.9845, 5.1829271, 1.9845, 9.6341467, 0.0763269, 0.0513619, 1.9845, 114.5121994, 1.9845, 33.841465, 1.9845, 76.4634171, 0.0763269, 0, 1.9845, 24.6341476, 1.9845, 18.3536587, 1.9845, 6.6463418, 0.0763269, 0.0807355, 1.9845, -9.9390249, 1.9845, 20.6097565, 1.9845, 12.8048782, 0.0763269, -0.0263523, 1.9845, -31.0975609, 1.9845, 18.4756107, 1.9845, 6.4634147, 0.0763269, -0.1942016, 1.9845, -120.6097565, 1.9845, 112.68293, 1.9845, 42.1341476, , , , , , , , , , , , , , , , , , , , , , 
0.0768462, 0.0468299, 1.998, 16.5853653, 1.998, 59.8780518, 1.998, 7.3170733, 0.0768462, 0.1178302, 1.998, 0.3658537, 1.998, 81.4634171, 1.998, 28.5975609, 0.0768462, -0.1834592, 1.998, 3.7804878, 1.998, 11.219512, 1.998, 9.8170738, 0.0768462, 0.0330663, 1.998, 123.9634171, 1.998, 26.280489, 1.998, 90.8536606, 0.0768462, 0, 1.998, 24.2073174, 1.998, 26.0365868, 1.998, 11.7682934, 0.0768462, 0.0323949, 1.998, -10.060976, 1.998, 23.1097565, 1.998, 13.841464, 0.0768462, -0.0339055, 1.998, -33.5365868, 1.998, 23.780489, 1.998, 7.3170733, 0.0768462, -0.1710384, 1.998, -147.0121918, 1.998, 50.8536606, 1.998, 32.6829262, , , , , , , , , , , , , , , , , , , , , , 
0.0773654, 0.0468299, 2.0115, 21.6463413, 2.0115, 79.2073212, 2.0115, 12.560976, 0.0773654, 0.1542535, 2.0115, -7.0121951, 2.0115, 82.9878082, 2.0115, 13.0487804, 0.0773654, -0.1846342, 2.0115, 3.1097562, 2.0115, 10.7926836, 2.0115, 8.9634151, 0.0773654, -0.0354162, 2.0115, 127.5, 2.0115, 25.6097565, 2.0115, 95.6707306, 0.0773654, 0, 2.0115, 23.780489, 2.0115, 38.1707344, 2.0115, 18.5365849, 0.0773654, -0.0045319, 2.0115, -8.4756098, 2.0115, 22.3780499, 2.0115, 13.1097565, 0.0773654, -0.0377661, 2.0115, -34.1463432, 2.0115, 35.4878044, 2.0115, 8.4756098, 0.0773654, -0.1238727, 2.0115, -164.3292694, 2.0115, 4.390244, 2.0115, 28.5365868, , , , , , , , , , , , , , , , , , , , , , 
0.0778846, 0.0381018, 2.025, 29.6951218, 2.025, 106.7073212, 2.025, 17.7439022, 0.0778846, 0.1743954, 2.025, -13.1097565, 2.025, 81.7073212, 2.025, -5.9756098, 0.0778846, -0.1871519, 2.025, 0, 2.025, 8.4146347, 2.025, 6.1585369, 0.0778846, -0.0585794, 2.025, 126.2195129, 2.025, 27.3780499, 2.025, 99.2073212, 0.0778846, 0, 2.025, 24.3292694, 2.025, 50.2439041, 2.025, 25.1829281, 0.0778846, -0.0250095, 2.025, -5.609756, 2.025, 23.6585369, 2.025, 10.7926836, 0.0778846, -0.043473, 2.025, -36.2804871, 2.025, 50.5487823, 2.025, 9.5731707, 0.0778846, -0.0448157, 2.025, -165.36586, 2.025, -13.2926836, 2.025, 28.5365868, , , , , , , , , , , , , , , , , , , , , , 
0.0784038, 0.0256809, 2.0385, 32.0731697, 2.0385, 120.9756088, 2.0385, 22.1341476, 0.0784038, 0.1700313, 2.0385, -22.2560978, 2.0385, 68.8414688, 2.0385, -24.2682934, 0.0784038, -0.1878233, 2.0385, -2.8658538, 2.0385, 14.2682934, 2.0385, 4.2073174, 0.0784038, -0.0072175, 2.0385, 130.1219482, 2.0385, 22.0731716, 2.0385, 103.9024429, 0.0784038, 0, 2.0385, 25.6097565, 2.0385, 63.2317085, 2.0385, 32.8658562, 0.0784038, -0.018967, 2.0385, -3.7195122, 2.0385, 29.2682934, 2.0385, 9.2073174, 0.0784038, -0.0582437, 2.0385, -39.2073174, 2.0385, 63.5975609, 2.0385, 9.1463413, 0.0784038, 0.0327306, 2.0385, -175.8536682, 2.0385, 17.2560978, 2.0385, 28.0487804, , , , , , , , , , , , , , , , , , , , , , 
0.0789231, 0.0240024, 2.052, 35.3048782, 2.052, 122.5609818, 2.052, 25.1219521, 0.0789231, 0.1515679, 2.052, -37.3780479, 2.052, 60.3658562, 2.052, -38.5975609, 0.0789231, -0.1801022, 2.052, -3.7195122, 2.052, 21.9512196, 2.052, 4.1463413, 0.0789231, 0.0250095, 2.052, 136.8902435, 2.052, 30.6097565, 2.052, 111.0975647, 0.0789231, 0, 2.052, 26.7073174, 2.052, 74.6951218, 2.052, 39.7560997, 0.0789231, 0.0028534, 2.052, -3.5975611, 2.052, 35.9756088, 2.052, 9.5731707, 0.0789231, -0.0716716, 2.052, -42.1951218, 2.052, 73.3536606, 2.052, 8.2926826, 0.0789231, 0.01561, 2.052, -187.012207, 2.052, 71.8902435, 2.052, 32.6219521, , , , , , , , , , , , , , , , , , , , , , 
0.0794423, 0.0354162, 2.0655, 49.6951218, 2.0655, 108.2317123, 2.0655, 25.3658543, 0.0794423, 0.1341115, 2.0655, -55.1219521, 2.0655, 67.0731735, 2.0655, -46.4634171, 0.0794423, -0.1639887, 2.0655, -3.3536587, 2.0655, 28.780489, 2.0655, 3.9024391, 0.0794423, -0.002182, 2.0655, 141.0975647, 2.0655, 29.3292694, 2.0655, 116.8292694, 0.0794423, 0, 2.0655, 27.6219521, 2.0655, 77.0731735, 2.0655, 41.8902435, 0.0794423, 0.0381018, 2.0655, -3.2317073, 2.0655, 40.0609779, 2.0655, 10.8536587, 0.0794423, -0.0760357, 2.0655, -44.6341476, 2.0655, 80.4878082, 2.0655, 8.5975609, 0.0794423, -0.0733501, 2.0655, -181.5853729, 2.0655, 86.4024429, 2.0655, 39.3902435, , , , , , , , , , , , , , , , , , , , , , 
0.0799615, 0.0421302, 2.079, 67.8658524, 2.079, 84.6951218, 2.079, 22.7439022, 0.0799615, 0.1216907, 2.079, -67.9268341, 2.079, 78.3536606, 2.079, -48.6585388, 0.0799615, -0.1532464, 2.079, -3.2317073, 2.079, 30.3658543, 2.079, 2.9878049, 0.0799615, -0.0290379, 2.079, 142.1341553, 2.079, 22.439024, 2.079, 117.9268341, 0.0799615, 0, 2.079, 30.8536587, 2.079, 78.9634171, 2.079, 43.2317085, 0.0799615, 0.0840925, 2.079, -2.9268293, 2.079, 41.0365868, 2.079, 11.1585369, 0.0799615, -0.0746929, 2.079, -46.5853653, 2.079, 85.18293, 2.079, 9.2073174, 0.0799615, -0.1233692, 2.079, -175.2439117, 2.079, 53.7804909, 2.079, 42.3170738, , , , , , , , , , , , , , , , , , , , , , 
0.0804808, 0.03122, 2.0925, 85.4268341, 2.0925, 67.9268341, 2.0925, 15.4878054, 0.0804808, 0.1082628, 2.0925, -72.0731735, 2.0925, 80.9756088, 2.0925, -48.5365868, 0.0804808, -0.1498894, 2.0925, -3.9634147, 2.0925, 29.7560978, 2.0925, 2.2560976, 0.0804808, -0.0206455, 2.0925, 142.4390259, 2.0925, 11.8902445, 2.0925, 120.2439041, 0.0804808, 0, 2.0925, 35.8536606, 2.0925, 78.9634171, 2.0925, 41.8292694, 0.0804808, 0.1075914, 2.0925, -1.8292683, 2.0925, 42.3170738, 2.0925, 11.1585369, 0.0804808, -0.0679789, 2.0925, -47.9268303, 2.0925, 84.7560959, 2.0925, 10.6707315, 0.0804808, -0.0998703, 2.0925, -177.0121918, 2.0925, 20.4268303, 2.0925, 36.4024391, , , , , , , , , , , , , , , , , , , , , , 
0.081, 0.0028534, 2.106, 98.1097565, 2.106, 61.5853691, 2.106, 7.1951222, 0.081, 0.0916457, 2.106, -69.6341476, 2.106, 75.7926865, 2.106, -47.4390259, 0.081, -0.1472038, 2.106, -4.6341462, 2.106, 28.4146347, 2.106, 2.6829269, 0.081, 0.0146029, 2.106, 143.1097565, 2.106, 10.4268293, 2.106, 123.2926865, 0.081, 0.002182, 2.106, 38.4146347, 2.106, 78.5975647, 2.106, 39.9390259, 0.081, 0.0988632, 2.106, -1.3414634, 2.106, 40.9146347, 2.106, 10.7317076, 0.081, -0.061265, 2.106, 0, 2.106, 0, 2.106, 0, 0.081, -0.0095674, 2.106, -180.4878082, 2.106, 11.9512196, 2.106, 27.8658543, , , , , , , , , , , , , , , , , , , , , , 
0.0815192, -0.026688, 2.1195, 100.4878082, 2.1195, 70.18293, 2.1195, 1.5243902, 0.0815192, 0.0753643, 2.1195, -66.4634171, 2.1195, 68.3536606, 2.1195, -43.1097565, 0.0815192, -0.144686, 2.1195, -4.4512196, 2.1195, 27.4390259, 2.1195, 3.0487804, 0.0815192, 0.0424659, 2.1195, 142.5609741, 2.1195, 12.1341467, 2.1195, 123.4146347, 0.0815192, -0.0008392, 2.1195, 38.4146347, 2.1195, 76.8902435, 2.1195, 38.0487823, 0.0815192, 0.0785534, 2.1195, -2.0121951, 2.1195, 41.1585388, 2.1195, 10.6707315, 0.0815192, -0.0605936, 2.1195, 0, 2.1195, 0, 2.1195, 0, 0.0815192, 0.1089342, 2.1195, -181.8292694, 2.1195, 12.6219511, 2.1195, 29.4512196, , , , , , , , , , , , , , , , , , , , , , 
0.0820385, -0.0464942, 2.133, 99.6951218, 2.133, 73.9634171, 2.133, -0.6097561, 0.0820385, 0.0681468, 2.133, -65.8536606, 2.133, 64.8780518, 2.133, -39.5121956, 0.0820385, -0.1428397, 2.133, -3.2926829, 2.133, 28.0487804, 2.133, 3.2317073, 0.0820385, 0.0276951, 2.133, 143.5975647, 2.133, 16.8902435, 2.133, 122.3780518, 0.0820385, -0.002182, 2.133, 36.4634171, 2.133, 75, 2.133, 37.8658562, 0.0820385, 0.0438087, 2.133, -2.9268293, 2.133, 40.3658562, 2.133, 11.341464, 0.0820385, -0.0621042, 2.133, -47.5, 2.133, 77.1951218, 2.133, 11.7073174, 0.0820385, 0.1938659, 2.133, -183.1097565, 2.133, 33.5975609, 2.133, 39.9390259, , , , , , , , , , , , , , , , , , , , , , 
0.0825577, -0.0736858, 2.1465, 96.646347, 2.1465, 75.2439041, 2.1465, -2.4390244, 0.0825577, 0.068986, 2.1465, -70, 2.1465, 57.9268303, 2.1465, -30.6097565, 0.0825577, -0.1394827, 2.1465, -2.7439024, 2.1465, 27.0731716, 2.1465, 3.6585367, 0.0825577, -0.0246738, 2.1465, 153.8414612, 2.1465, 23.4756107, 2.1465, 115.0609818, 0.0825577, -0.0041962, 2.1465, 33.5975609, 2.1465, 71.3414688, 2.1465, 38.3536606, 0.0825577, -0.0062104, 2.1465, 0, 2.1465, 0, 2.1465, 0, 0.0825577, -0.0609293, 2.1465, 0, 2.1465, 0, 2.1465, 0, 0.0825577, 0.2039368, 2.1465, -186.4024506, 2.1465, 56.8902435, 2.1465, 47.0121956, , , , , , , , , , , , , , , , , , , , , , 
0.0830769, -0.1099413, 2.16, 89.0243912, 2.16, 76.8902435, 2.16, -1.8292683, 0.0830769, 0.0730144, 2.16, -80.2439041, 2.16, 51.1585388, 2.16, -23.5365868, 0.0830769, -0.1304189, 2.16, -2.5609756, 2.16, 26.280489, 2.16, 4.0853658, 0.0830769, -0.0688182, 2.16, 171.0365906, 2.16, 32.9268303, 2.16, 105.1219559, 0.0830769, -0.0075532, 2.16, 30.3658543, 2.16, 69.3292694, 2.16, 37.5609779, 0.0830769, -0.0421302, 2.16, -3.7804878, 2.16, 39.0243912, 2.16, 11.341464, 0.0830769, -0.0562295, 2.16, -44.5121956, 2.16, 75.8536606, 2.16, 11.7073174, 0.0830769, 0.1623102, 2.16, -195.8536682, 2.16, 105.4878082, 2.16, 60, , , , , , , , , , , , , , , , , , , , , , 
0.0835962, -0.13579, 2.1735, 87.4390259, 2.1735, 82.9268341, 2.1735, -2.6219513, 0.0835962, 0.0753643, 2.1735, -88.1097565, 2.1735, 47.5609779, 2.1735, -20.3048782, 0.0835962, -0.1196765, 2.1735, -1.7073171, 2.1735, 25.2439022, 2.1735, 5.2439027, 0.0835962, -0.0837568, 2.1735, 188.7804871, 2.1735, 86.7073212, 2.1735, 83.1097565, 0.0835962, -0.0099031, 2.1735, 29.0243912, 2.1735, 68.7804871, 2.1735, 35.8536606, 0.0835962, -0.0538796, 2.1735, -5.1219511, 2.1735, 40.1219521, 2.1735, 12.0121956, 0.0835962, -0.0461585, 2.1735, 0, 2.1735, 0, 2.1735, 0, 0.0835962, 0.1433433, 2.1735, -196.4024506, 2.1735, 166.4634247, 2.1735, 66.7682953, , , , , , , , , , , , , , , , , , , , , , 
0.0841154, -0.1409934, 2.187, 91.9512253, 2.187, 94.2682953, 2.187, -6.2195125, 0.0841154, 0.0740215, 2.187, -85.0609741, 2.187, 55.4268303, 2.187, -19.1463413, 0.0841154, -0.1116197, 2.187, -1.7682927, 2.187, 27.8658543, 2.187, 5.7926831, 0.0841154, -0.0746929, 2.187, 193.6585388, 2.187, 151.7682953, 2.187, 71.2804871, 0.0841154, -0.0109102, 2.187, 28.0487804, 2.187, 69.5121994, 2.187, 34.5121956, 0.0841154, -0.0458228, 2.187, -5.5487804, 2.187, 43.841465, 2.187, 13.2317076, 0.0841154, -0.0303807, 2.187, 0, 2.187, 0, 2.187, 0, 0.0841154, 0.1401541, 2.187, -154.146347, 2.187, 161.4024353, 2.187, 66.2804871, , , , , , , , , , , , , , , , , , , , , , 
0.0846346, -0.13579, 2.2005, 87.1951218, 2.2005, 110.9146347, 2.2005, -10.3048782, 0.0846346, 0.0696574, 2.2005, -73.2317123, 2.2005, 75.2439041, 2.2005, -15.7317076, 0.0846346, -0.1018845, 2.2005, -1.8902439, 2.2005, 33.841465, 2.2005, 6.0975609, 0.0846346, -0.0411231, 2.2005, 190.1219482, 2.2005, 175.3048859, 2.2005, 57.6219521, 0.0846346, -0.0137636, 2.2005, 26.4634151, 2.2005, 72.6219559, 2.2005, 34.1463432, 0.0846346, -0.0243381, 2.2005, -5.7317076, 2.2005, 48.5975609, 2.2005, 14.6341467, 0.0846346, -0.0068818, 2.2005, 0, 2.2005, 0, 2.2005, 0, 0.0846346, 0.0877852, 2.2005, -109.6951218, 2.2005, 132.8048859, 2.2005, 69.2682953, , , , , , , , , , , , , , , , , , , , , , 
0.0851538, -0.1438468, 2.214, 70.3048782, 2.214, 118.1707382, 2.214, -14.6341467, 0.0851538, 0.0595865, 2.214, -64.4512177, 2.214, 102.0121994, 2.214, -8.719512, 0.0851538, -0.0941634, 2.214, -1.2804878, 2.214, 37.8048782, 2.214, 5.9756098, 0.0851538, 0.0166171, 2.214, 182.7439117, 2.214, 173.3536682, 2.214, 44.3902435, 0.0851538, -0.0166171, 2.214, 23.1707325, 2.214, 73.5365906, 2.214, 34.3902435, 0.0851538, -0.0028534, 2.214, -5.5487804, 2.214, 51.2195129, 2.214, 15.7317076, 0.0851538, 0.0186313, 2.214, 0, 2.214, 0, 2.214, 0, 0.0851538, -0.0031891, 2.214, -112.2561035, 2.214, 143.6585388, 2.214, 70.7317123, , , , , , , , , , , , , , , , , , , , , , 
0.0856731, -0.1686885, 2.2275, 54.2073174, 2.2275, 127.5609818, 2.2275, -16.0365849, 0.0856731, 0.0464942, 2.2275, -61.5243912, 2.2275, 125.4268341, 2.2275, -0.7317073, 0.0856731, -0.0951705, 2.2275, -0.3048781, 2.2275, 38.0487823, 2.2275, 5.4878049, 0.0856731, 0.0540475, 2.2275, 167.8048859, 2.2275, 166.0975647, 2.2275, 34.8780479, 0.0856731, -0.0184634, 2.2275, 21.4024391, 2.2275, 74.0853653, 2.2275, 34.3902435, 0.0856731, 0.0260166, 2.2275, -5.4268293, 2.2275, 51.0365868, 2.2275, 16.1585369, 0.0856731, 0.036759, 2.2275, -37.5, 2.2275, 74.5121994, 2.2275, 16.9512196, 0.0856731, -0.0715038, 2.2275, -118.9634171, 2.2275, 199.512207, 2.2275, 61.0975609, , , , , , , , , , , , , , , , , , , , , , 
0.0861923, -0.1811093, 2.241, 45.5487823, 2.241, 142.6219482, 2.241, -10.060976, 0.0861923, 0.0357519, 2.241, -57.9268303, 2.241, 140.1829376, 2.241, 7.7439027, 0.0861923, -0.0956741, 2.241, 1.7682927, 2.241, 33.4756088, 2.241, 5.4878049, 0.0861923, 0.0288701, 2.241, 141.8902435, 2.241, 151.9512177, 2.241, 20.3048782, 0.0861923, -0.021149, 2.241, 18.2926826, 2.241, 76.5243912, 2.241, 34.4512215, 0.0861923, 0.072343, 2.241, -5.2439027, 2.241, 45.7317085, 2.241, 17.0731716, 0.0861923, 0.0475013, 2.241, -37.2560997, 2.241, 74.6341476, 2.241, 16.7682934, 0.0861923, -0.0743572, 2.241, -102.5609818, 2.241, 218.5975647, 2.241, 50.4268303, , , , , , , , , , , , , , , , , , , , , , 
0.0867115, -0.1609674, 2.2545, 40.7317085, 2.2545, 151.5243988, 2.2545, 2.4390244, 0.0867115, 0.0226596, 2.2545, -56.1585388, 2.2545, 155.6097565, 2.2545, 14.5121956, 0.0867115, -0.0914778, 2.2545, 3.4146342, 2.2545, 25.3658543, 2.2545, 5, 0.0867115, 0.0005035, 2.2545, 120.8536606, 2.2545, 164.3292694, 2.2545, 6.890244, 0.0867115, -0.0243381, 2.2545, 17.8048782, 2.2545, 72.3170776, 2.2545, 33.4756088, 0.0867115, 0.0877852, 2.2545, -5.4878049, 2.2545, 39.7560997, 2.2545, 17.6829281, 0.0867115, 0.0575723, 2.2545, -39.0243912, 2.2545, 71.0975647, 2.2545, 16.0975609, 0.0867115, -0.0387732, 2.2545, -75.0609741, 2.2545, 198.1707306, 2.2545, 41.8292694, , , , , , , , , , , , , , , , , , , , , , 
