Application:, Trigno Discover (2.0.1.3)
Date/Time:, 04-Nov-25 15:13:01
Collection Length (seconds):, 2.997
 Hamstrings right (85641), , , , , , , ,  Rectus Femoris right (85844), , , , , , , ,  Gastrocnemius left (85904), , , , , , , , TibilaisÂ Anterior right (85650), , , , , , , ,  Hamstrings left (85586), , , , , , , , TibilaisÂ Anterior left (85605), , , , , , , ,  Rectus Femoris left (85878), , , , , , , ,  Gastrocnemius right (85873)
sensor mode: 49, , , , , , , , sensor mode: 49, , , , , , , , sensor mode: 49, , , , , , , , sensor mode: 49, , , , , , , , sensor mode: 49, , , , , , , , sensor mode: 49, , , , , , , , sensor mode: 49, , , , , , , , sensor mode: 49
EMG 1 Time Series (s), EMG 1 (mV), GYRO X Time Series (s), GYRO X (deg/s), GYRO Y Time Series (s), GYRO Y (deg/s), GYRO Z Time Series (s), GYRO Z (deg/s), EMG 1 Time Series (s), EMG 1 (mV), GYRO X Time Series (s), GYRO X (deg/s), GYRO Y Time Series (s), GYRO Y (deg/s), GYRO Z Time Series (s), GYRO Z (deg/s), EMG 1 Time Series (s), EMG 1 (mV), GYRO X Time Series (s), GYRO X (deg/s), GYRO Y Time Series (s), GYRO Y (deg/s), GYRO Z Time Series (s), GYRO Z (deg/s), EMG 1 Time Series (s), EMG 1 (mV), GYRO X Time Series (s), GYRO X (deg/s), GYRO Y Time Series (s), GYRO Y (deg/s), GYRO Z Time Series (s), GYRO Z (deg/s), EMG 1 Time Series (s), EMG 1 (mV), GYRO X Time Series (s), GYRO X (deg/s), GYRO Y Time Series (s), GYRO Y (deg/s), GYRO Z Time Series (s), GYRO Z (deg/s), EMG 1 Time Series (s), EMG 1 (mV), GYRO X Time Series (s), GYRO X (deg/s), GYRO Y Time Series (s), GYRO Y (deg/s), GYRO Z Time Series (s), GYRO Z (deg/s), EMG 1 Time Series (s), EMG 1 (mV), GYRO X Time Series (s), GYRO X (deg/s), GYRO Y Time Series (s), GYRO Y (deg/s), GYRO Z Time Series (s), GYRO Z (deg/s), EMG 1 Time Series (s), EMG 1 (mV), GYRO X Time Series (s), GYRO X (deg/s), GYRO Y Time Series (s), GYRO Y (deg/s), GYRO Z Time Series (s), GYRO Z (deg/s)
, 1925.9259 Hz, , 74.0741 Hz, , 74.0741 Hz, , 74.0741 Hz, , 1925.9259 Hz, , 74.0741 Hz, , 74.0741 Hz, , 74.0741 Hz, , 1925.9259 Hz, , 74.0741 Hz, , 74.0741 Hz, , 74.0741 Hz, , 1925.9259 Hz, , 74.0741 Hz, , 74.0741 Hz, , 74.0741 Hz, , 1925.9259 Hz, , 74.0741 Hz, , 74.0741 Hz, , 74.0741 Hz, , 1925.9259 Hz, , 74.0741 Hz, , 74.0741 Hz, , 74.0741 Hz, , 1925.9259 Hz, , 74.0741 Hz, , 74.0741 Hz, , 74.0741 Hz, , 1925.9259 Hz, , 74.0741 Hz, , 74.0741 Hz, , 74.0741 Hz
, 0.0005192307692307692 s, , 0.0135 s, , 0.0135 s, , 0.0135 s, , 0.0005192307692307692 s, , 0.0135 s, , 0.0135 s, , 0.0135 s, , 0.0005192307692307692 s, , 0.0135 s, , 0.0135 s, , 0.0135 s, , 0.0005192307692307692 s, , 0.0135 s, , 0.0135 s, , 0.0135 s, , 0.0005192307692307692 s, , 0.0135 s, , 0.0135 s, , 0.0135 s, , 0.0005192307692307692 s, , 0.0135 s, , 0.0135 s, , 0.0135 s, , 0.0005192307692307692 s, , 0.0135 s, , 0.0135 s, , 0.0135 s, , 0.0005192307692307692 s, , 0.0135 s, , 0.0135 s, , 0.0135 s, , Type, Name, Label, Time (s), , Pair, E1, E2, T1, T2, V1, V2, Sensor, Channel, Units, Delta T, RMS, PKPK, Peak Value, TPK, Integral
0, -0.0115816, 0, 337.6219482, 0, -162.5609741, 0, 87.6219559, 0, -0.2163577, 0, -37.8048782, 0, -247.0731812, 0, -166.9512177, 0, -0.1320974, 0, -167.4390259, 0, 177.1341553, 0, -260.7926941, 0, -0.1351186, 0, -46.0365868, 0, 49.0243912, 0, -90.5487823, 0, 0.0065461, 0, -647.4390259, 0, 112.68293, 0, -119.3902435, 0, -0.0176242, 0, 235.6097565, 0, 208.4756165, 0, -122.5, 0, -0.0975204, 0, 472.3780518, 0, 2.8658538, 0, -81.2195129, 0, 0.0656291, 0, 113.9634171, 0, 39.8170738, 0, -12.1341467, , , , , , , , , , , , , , , , , , , , , , 
0.0005192, -0.0018463, 0.0135, 172.1341553, 0.0135, -225.9146423, 0.0135, -4.5121951, 0.0005192, -0.233814, 0.0135, -126.646347, 0.0135, -258.2926941, 0.0135, -175.6097565, 0.0005192, -0.1297475, 0.0135, -277.0731812, 0.0135, 213.0487823, 0.0135, -374.5731812, 0.0005192, -0.1250477, 0.0135, 16.8292694, 0.0135, 147.4390259, 0.0135, -99.5121994, 0.0005192, 0.0050355, 0.0135, -501.5853882, 0.0135, 31.0975609, 0.0135, -129.9390259, 0.0005192, -0.0327306, 0.0135, 385.6097717, 0.0135, 219.146347, 0.0135, -180.1219482, 0.0005192, -0.1065843, 0.0135, 521.8902588, 0.0135, -12.0731707, 0.0135, -82.8658524, 0.0005192, 0.0716716, 0.0135, 109.3902435, 0.0135, 126.0975647, 0.0135, 0.4268293, , , , , , , , , , , , , , , , , , , , , , 
0.0010385, 0.0125887, 0.027, 157.3780518, 0.027, -182.9268341, 0.027, -59.8780518, 0.0010385, -0.2422065, 0.027, -181.8292694, 0.027, -118.5975647, 0.027, -165.1219482, 0.0010385, -0.1290761, 0.027, -297.9268494, 0.027, 207.86586, 0.027, -469.7561035, 0.0010385, -0.1193408, 0.027, 61.7073174, 0.027, 175.3048859, 0.027, -103.4756088, 0.0010385, 0.003357, 0.027, -414.2073364, 0.027, 35.5487823, 0.027, -88.0487823, 0.0010385, -0.0565652, 0.027, 481.1585388, 0.027, 206.5243988, 0.027, -215.5487823, 0.0010385, -0.1084306, 0.027, 552.6829224, 0.027, -10.4878054, 0.027, -67.3170776, 0.0010385, 0.0602579, 0.027, 103.4146347, 0.027, 176.2195129, 0.027, 46.5243912, , , , , , , , , , , , , , , , , , , , , , 
0.0015577, 0.0229953, 0.0405, 271.4634094, 0.0405, -35.7926826, 0.0405, 3.7195122, 0.0015577, -0.2475776, 0.0405, -212.6219635, 0.0405, -81.646347, 0.0405, -113.1707306, 0.0015577, -0.1287404, 0.0405, -336.7073364, 0.0405, 191.0365906, 0.0405, -568.475647, 0.0015577, -0.1320974, 0.0405, 89.3902435, 0.0405, 168.0487823, 0.0405, -92.8658524, 0.0015577, 0.0005035, 0.0405, -421.1585388, 0.0405, 65, 0.0405, -80.1219559, 0.0015577, -0.0693217, 0.0405, 571.5244141, 0.0405, 183.6585388, 0.0405, -265.0609741, 0.0015577, -0.1116197, 0.0405, 517.3170776, 0.0405, 14.4512196, 0.0405, -38.7804871, 0.0015577, -0.0041962, 0.0405, 80.7926865, 0.0405, 197.3170776, 0.0405, 52.9268303, , , , , , , , , , , , , , , , , , , , , , 
0.0020769, 0.0263523, 0.054, 310.8536682, 0.054, 34.5121956, 0.054, -32.5609779, 0.0020769, -0.2455634, 0.054, -282.5609741, 0.054, 46.8292694, 0.054, -65, 0.0020769, -0.128069, 0.054, -361.4634094, 0.054, 130.1219482, 0.054, -641.8292847, 0.0020769, -0.1552605, 0.054, 115.6097565, 0.054, 142.9878082, 0.054, -62.1341476, 0.0020769, -0.0038605, 0.054, -376.2804871, 0.054, 124.8170776, 0.054, -108.3536606, 0.0020769, -0.0503548, 0.054, 647.1341553, 0.054, 155.6097565, 0.054, -315.9146423, 0.0020769, -0.1143053, 0.054, 445.6707458, 0.054, 38.1097565, 0.054, -8.2926826, 0.0020769, -0.0485084, 0.054, 54.0853653, 0.054, 197.3170776, 0.054, 64.2073212, , , , , , , , , , , , , , , , , , , , , , 
0.0025962, 0.0238346, 0.0675, 269.0853577, 0.0675, 139.9390259, 0.0675, -85.6707306, 0.0025962, -0.2324712, 0.0675, -338.6585388, 0.0675, 188.2926941, 0.0675, -57.0121956, 0.0025962, -0.1287404, 0.0675, -398.9024353, 0.0675, 75.5487823, 0.0675, -668.4146729, 0.0025962, -0.1755703, 0.0675, 125.0609818, 0.0675, 78.5975647, 0.0675, -50.4878044, 0.0025962, -0.0097353, 0.0675, -343.4756165, 0.0675, 126.5853653, 0.0675, -128.1707306, 0.0025962, -0.0292058, 0.0675, 684.2073364, 0.0675, 124.5731735, 0.0675, -375.1219482, 0.0025962, -0.103563, 0.0675, 336.8902588, 0.0675, 44.7560997, 0.0675, 21.5853672, 0.0025962, -0.0330663, 0.0675, 14.6341467, 0.0675, 148.1097565, 0.0675, 77.8048782, , , , , , , , , , , , , , , , , , , , , , 
0.0031154, 0.0219883, 0.081, 314.7561035, 0.081, 157.5609741, 0.081, -87.5609741, 0.0031154, -0.2042725, 0.081, -347.5, 0.081, 185.2439117, 0.081, -108.5975647, 0.0031154, -0.1324331, 0.081, -396.4634094, 0.081, -7.5609756, 0.081, -693.475647, 0.0031154, -0.1841306, 0.081, 151.0975647, 0.081, 64.4512177, 0.081, -84.3902435, 0.0031154, -0.0140993, 0.081, -227.9878082, 0.081, 51.5853653, 0.081, -113.3536606, 0.0031154, -0.0394446, 0.081, 684.0244141, 0.081, 102.2561035, 0.081, -407.8049011, 0.0031154, -0.0800641, 0.081, 250.0609741, 0.081, 66.3414612, 0.081, 35.9146347, 0.0031154, -0.047837, 0.081, -3.6585367, 0.081, 125.18293, 0.081, 103.4146347, , , , , , , , , , , , , , , , , , , , , , 
0.0036346, 0.0209812, 0.0945, 351.6463623, 0.0945, 11.0365858, 0.0945, -58.3536606, 0.0036346, -0.1690242, 0.0945, -366.6463623, 0.0945, 27.5, 0.0945, -169.3902435, 0.0036346, -0.1367971, 0.0945, -393.4146423, 0.0945, -56.341465, 0.0945, -700.9146729, 0.0036346, -0.170367, 0.0945, 167.4390259, 0.0945, 95.18293, 0.0945, -122.7439041, 0.0036346, -0.0159457, 0.0945, -88.6585388, 0.0945, -9.0243902, 0.0945, -93.3536606, 0.0036346, -0.0515297, 0.0945, 690.9146729, 0.0945, 66.0975647, 0.0945, -418.5975647, 0.0036346, -0.0525368, 0.0945, 191.1585388, 0.0945, 92.0121994, 0.0945, 65.5487823, 0.0036346, -0.1178302, 0.0945, 14.8780489, 0.0945, 135.9146423, 0.0945, 134.0853729, , , , , , , , , , , , , , , , , , , , , , 
0.0041538, 0.0149386, 0.108, 360.3049011, 0.108, -38.9634171, 0.108, -60.1219521, 0.0041538, -0.1406577, 0.108, -338.6585388, 0.108, -127.9878082, 0.108, -202.0731812, 0.0041538, -0.1384756, 0.108, -458.7804871, 0.108, -87.0121994, 0.108, -666.4024658, 0.0041538, -0.1371328, 0.108, 148.1707306, 0.108, 87.8048782, 0.108, -132.6219482, 0.0041538, -0.0179599, 0.108, 4.9390244, 0.108, 49.1463432, 0.108, -94.9390259, 0.0041538, -0.0481727, 0.108, 675.5487671, 0.108, 39.9390259, 0.108, -451.1585388, 0.0041538, -0.0313878, 0.108, 157.5609741, 0.108, 96.3414688, 0.108, 84.146347, 0.0041538, -0.1552605, 0.108, 63.4756126, 0.108, 154.0243988, 0.108, 118.9024429, , , , , , , , , , , , , , , , , , , , , , 
0.0046731, 0.0119173, 0.1215, 327.9878235, 0.1215, -144.3902435, 0.1215, -47.8658562, 0.0046731, -0.1243763, 0.1215, -260.4268494, 0.1215, -211.1585388, 0.1215, -200.0609741, 0.0046731, -0.1344472, 0.1215, -486.2804871, 0.1215, -145.1219482, 0.1215, -634.6341553, 0.0046731, -0.1028916, 0.1215, 127.3780518, 0.1215, 42.3170738, 0.1215, -154.2682953, 0.0046731, -0.0209812, 0.1215, 89.6951218, 0.1215, 91.3414688, 0.1215, -81.4634171, 0.0046731, -0.0708324, 0.1215, 666.3414917, 0.1215, 20, 0.1215, -456.8902588, 0.0046731, -0.0179599, 0.1215, 45.2439041, 0.1215, 54.8780518, 0.1215, 99.9390259, 0.0046731, -0.096849, 0.1215, 30.060976, 0.1215, 181.7073212, 0.1215, 126.2195129, , , , , , , , , , , , , , , , , , , , , , 
0.0051923, 0.0219883, 0.135, 255.6097565, 0.135, -142.1951294, 0.135, -56.9512215, 0.0051923, -0.1008774, 0.135, -254.3902435, 0.135, -228.7195129, 0.135, -183.9634247, 0.0051923, -0.1263905, 0.135, -445.6707458, 0.135, -214.7561035, 0.135, -593.475647, 0.0051923, -0.0884565, 0.135, 219.512207, 0.135, 76.8902435, 0.135, -115.4268341, 0.0051923, -0.0223239, 0.135, 246.1585388, 0.135, -10.1829271, 0.135, -51.7073174, 0.0051923, -0.1144732, 0.135, 643.6585693, 0.135, -46.5243912, 0.135, -437.6829224, 0.0051923, -0.0068818, 0.135, -66.7073212, 0.135, -48.9024391, 0.135, 74.2073212, 0.0051923, -0.0050355, 0.135, -16.6463413, 0.135, 67.1341476, 0.135, 163.2926941, , , , , , , , , , , , , , , , , , , , , , 
0.0057115, 0.0468299, 0.1485, 201.1585388, 0.1485, -130, 0.1485, -78.1707306, 0.0057115, -0.0592508, 0.1485, -216.2195129, 0.1485, -255.36586, 0.1485, -113.4756088, 0.0057115, -0.1138018, 0.1485, -324.4512329, 0.1485, -339.6951294, 0.1485, -542.4390259, 0.0057115, -0.0965133, 0.1485, 241.4024506, 0.1485, 43.1707344, 0.1485, -166.0365906, 0.0057115, -0.0206455, 0.1485, 253.5975647, 0.1485, 56.4634171, 0.1485, -4.1463413, 0.0057115, -0.1151446, 0.1485, 583.0487671, 0.1485, -136.9512177, 0.1485, -387.6829224, 0.0057115, 0.0005035, 0.1485, -127.9878082, 0.1485, -144.0853729, 0.1485, 65.7317123, 0.0057115, 0.0283665, 0.1485, 36.4634171, 0.1485, -76.4024429, 0.1485, 207.5, , , , , , , , , , , , , , , , , , , , , , 
0.0062308, 0.0743572, 0.162, 207.8048859, 0.162, -113.0487823, 0.162, -50.1219521, 0.0062308, -0.0102388, 0.162, -143.2317047, 0.162, -169.5731812, 0.162, -73.1707306, 0.0062308, -0.1028916, 0.162, -238.1707306, 0.162, -407.4390259, 0.162, -515.7927246, 0.0062308, -0.0864424, 0.162, 27.0731716, 0.162, -216.2195129, 0.162, -315.9146423, 0.0062308, -0.0198062, 0.162, 204.7561035, 0.162, 57.5, 0.162, 13.780488, 0.0062308, -0.0699931, 0.162, 495.8536682, 0.162, -229.5731812, 0.162, -290.0609741, 0.0062308, 0.0119173, 0.162, -141.4024353, 0.162, -103.3536606, 0.162, 71.2804871, 0.0062308, 0.0172885, 0.162, 152.2561035, 0.162, -118.0487823, 0.162, 199.5731812, , , , , , , , , , , , , , , , , , , , , , 
0.00675, 0.0897993, 0.1755, 161.0365906, 0.1755, -75.6097565, 0.1755, 45, 0.00675, 0.0387732, 0.1755, -59.4512215, 0.1755, -8.0487804, 0.1755, -95.2439041, 0.00675, -0.1008774, 0.1755, -137.6829376, 0.1755, -399.3902588, 0.1755, -415.1219482, 0.00675, -0.0449836, 0.1755, -168.7195129, 0.1755, -224.5731812, 0.1755, -457.9878235, 0.00675, -0.0203098, 0.1755, 107.3780518, 0.1755, -92.9268341, 0.1755, -26.2195129, 0.00675, 0.0035248, 0.1755, 407.743927, 0.1755, -281.2195129, 0.1755, -193.1707306, 0.00675, 0.0283665, 0.1755, -96.7073212, 0.1755, -43.5365868, 0.1755, 75.4878082, 0.00675, -0.0045319, 0.1755, 453.6585388, 0.1755, -208.2926941, 0.1755, 122.86586, , , , , , , , , , , , , , , , , , , , , , 
0.0072692, 0.0884565, 0.189, 155.1829376, 0.189, -21.2195129, 0.189, 123.0487823, 0.0072692, 0.0807355, 0.189, -9.8780489, 0.189, 178.9634247, 0.189, -120.18293, 0.0072692, -0.1037308, 0.189, -78.1097565, 0.189, -272.4390259, 0.189, -292.6829224, 0.0072692, -0.0485084, 0.189, -217.9878082, 0.189, -111.8902435, 0.189, -512.5, 0.0072692, -0.0206455, 0.189, 31.6463413, 0.189, -154.5731812, 0.189, -124.5121994, 0.0072692, 0.1394827, 0.189, 300.0609741, 0.189, -219.512207, 0.189, -76.8902435, 0.0072692, 0.0374304, 0.189, -54.5121956, 0.189, -61.8292694, 0.189, 70.0609741, 0.0072692, -0.0864424, 0.189, 562.3170776, 0.189, -110.7317123, 0.189, 49.4512215, , , , , , , , , , , , , , , , , , , , , , 
0.0077885, 0.0793927, 0.2025, 180.1829376, 0.2025, -25.7317085, 0.2025, 121.5243912, 0.0077885, 0.1045701, 0.2025, 42.1951218, 0.2025, 131.0975647, 0.2025, -136.4634247, 0.0077885, -0.1096056, 0.2025, 4.2073174, 0.2025, -95.9756088, 0.2025, -173.5365906, 0.0077885, -0.1052415, 0.2025, -272.9268494, 0.2025, -148.7804871, 0.2025, -523.6585693, 0.0077885, -0.0206455, 0.2025, -23.5365868, 0.2025, -77.1341476, 0.2025, -167.9268341, 0.0077885, 0.2670481, 0.2025, 169.8780518, 0.2025, -86.7682953, 0.2025, 33.3536606, 0.0077885, 0.0347448, 0.2025, -71.5853653, 0.2025, -162.2561035, 0.2025, 38.4146347, 0.0077885, -0.1832914, 0.2025, 576.2805176, 0.2025, -3.8414636, 0.2025, 20.7317085, , , , , , , , , , , , , , , , , , , , , , 
0.0083077, 0.0639506, 0.216, 128.9024353, 0.216, -22.7439022, 0.216, 97.1341476, 0.0083077, 0.1163195, 0.216, 101.2804871, 0.216, -85.1219559, 0.216, -155.4268341, 0.0083077, -0.1138018, 0.216, 44.5731735, 0.216, 51.4634171, 0.216, -36.6463432, 0.0083077, -0.1384756, 0.216, -315.0609741, 0.216, -200.3048859, 0.216, -524.0244141, 0.0083077, -0.0218204, 0.216, 11.280488, 0.216, -84.9390259, 0.216, -146.9512177, 0.0083077, 0.2952468, 0.216, 21.0365868, 0.216, 120.9146347, 0.216, 92.0121994, 0.0083077, 0.0293736, 0.216, -44.7560997, 0.216, -267.3780518, 0.216, 0.2439024, 0.0083077, -0.1978943, 0.216, 623.7195435, 0.216, -180.9146423, 0.216, 10.1829271, , , , , , , , , , , , , , , , , , , , , , 
0.0088269, 0.033402, 0.2295, 39.9390259, 0.2295, 23.780489, 0.2295, 85.8536606, 0.0088269, 0.1230335, 0.2295, 93.7195129, 0.2295, -145.1829376, 0.2295, -180.8536682, 0.0088269, -0.115816, 0.2295, 130.9146423, 0.2295, 200.5487823, 0.2295, 65.18293, 0.0088269, -0.112459, 0.2295, -359.8780518, 0.2295, -176.646347, 0.2295, -536.2805176, 0.0088269, -0.0229953, 0.2295, 64.8170776, 0.2295, -160.8536682, 0.2295, -113.3536606, 0.0088269, 0.2519417, 0.2295, -99.146347, 0.2295, 213.7195129, 0.2295, 180.4878082, 0.0088269, 0.0273594, 0.2295, -34.2073174, 0.2295, -250.8536682, 0.2295, -30.6097565, 0.0088269, -0.1226978, 0.2295, 656.1585693, 0.2295, -317.7438965, 0.2295, -40.6097565, , , , , , , , , , , , , , , , , , , , , , 
0.0093462, -0.0028534, 0.243, -35.6097565, 0.243, 32.3780479, 0.243, 98.6585388, 0.0093462, 0.1245441, 0.243, 8.9634151, 0.243, -147.1341553, 0.243, -133.1707306, 0.0093462, -0.1267262, 0.243, 155.1219482, 0.243, 229.4512177, 0.243, 150.36586, 0.0093462, -0.0746929, 0.243, -339.6951294, 0.243, -11.8902445, 0.243, -482.5, 0.0093462, -0.0223239, 0.243, 86.4634171, 0.243, -271.8292847, 0.243, -86.7682953, 0.0093462, 0.1169909, 0.243, -153.4756165, 0.243, 162.3780518, 0.243, 203.9634247, 0.0093462, 0.0219883, 0.243, -47.5609779, 0.243, -235.3048859, 0.243, -28.2317085, 0.0093462, -0.027863, 0.243, 616.2805176, 0.243, -182.3170776, 0.243, -114.5731735, , , , , , , , , , , , , , , , , , , , , , 
0.0098654, -0.0209812, 0.2565, -18.8414631, 0.2565, 80.6097565, 0.2565, 133.7804871, 0.0098654, 0.1200122, 0.2565, 30.1219521, 0.2565, 174.6951294, 0.2565, -46.5853653, 0.0098654, -0.1378042, 0.2565, 121.0365906, 0.2565, 169.6951294, 0.2565, 182.6219482, 0.0098654, -0.0605936, 0.2565, -270.3658447, 0.2565, 94.9390259, 0.2565, -447.9878235, 0.0098654, -0.0203098, 0.2565, 120.5487823, 0.2565, -118.2317123, 0.2565, -9.5121956, 0.0098654, -0.0397803, 0.2565, -159.8170776, 0.2565, 92.68293, 0.2565, 153.7804871, 0.0098654, 0.0078889, 0.2565, -58.841465, 0.2565, -125.18293, 0.2565, 50, 0.0098654, 0.0139315, 0.2565, 543.2927246, 0.2565, 43.841465, 0.2565, -147.3170776, , , , , , , , , , , , , , , , , , , , , , 
0.0103846, -0.0114137, 0.27, -47.9878044, 0.27, 65.4268341, 0.27, 153.4146423, 0.0103846, 0.1159838, 0.27, 175.6707306, 0.27, 30.1829281, 0.27, -65.4878082, 0.0103846, -0.1371328, 0.27, 116.2195129, 0.27, 76.8902435, 0.27, 158.2317047, 0.0103846, -0.0555581, 0.27, -139.8170776, 0.27, 184.0853729, 0.27, -360.73172, 0.0103846, -0.0162814, 0.27, 133.7195129, 0.27, -16.7073174, 0.27, 96.5243912, 0.0103846, -0.0767071, 0.27, -165.36586, 0.27, 45.9146347, 0.27, 130.5487823, 0.0103846, -0.0135958, 0.27, -194.0853729, 0.27, -36.2804871, 0.27, 97.8048782, 0.0103846, -0.0045319, 0.27, 408.5975647, 0.27, 130.8536682, 0.27, -49.6951218, , , , , , , , , , , , , , , , , , , , , , 
0.0109038, 0.0105745, 0.2835, -126.8902435, 0.2835, -29.9390259, 0.2835, 169.3292694, 0.0109038, 0.10692, 0.2835, 214.3292694, 0.2835, 60.4268303, 0.2835, -29.3292694, 0.0109038, -0.1307546, 0.2835, 119.3292694, 0.2835, -72.0731735, 0.2835, 114.146347, 0.0109038, -0.0438087, 0.2835, -97.5609741, 0.2835, 117.4390259, 0.2835, -311.4634094, 0.0109038, -0.0112459, 0.2835, 237.3780518, 0.2835, -27.0121956, 0.2835, 112.5, 0.0109038, -0.0184634, 0.2835, -140.8536682, 0.2835, -16.7073174, 0.2835, 119.3292694, 0.0109038, -0.0412909, 0.2835, -389.0244141, 0.2835, 201.3414612, 0.2835, 76.4024429, 0.0109038, -0.0370947, 0.2835, 212.9268341, 0.2835, 53.3536606, 0.2835, 75.1219559, , , , , , , , , , , , , , , , , , , , , , 
0.0114231, 0.0199741, 0.297, -159.3292694, 0.297, -21.8292694, 0.297, 143.8414612, 0.0114231, 0.0891279, 0.297, 248.4146423, 0.297, 20.3048782, 0.297, 24.1463413, 0.0114231, -0.1250477, 0.297, 63.4756126, 0.297, -0.5487805, 0.297, 75, 0.0114231, -0.0243381, 0.297, -93.9024429, 0.297, -23.0487804, 0.297, -199.4512177, 0.0114231, -0.0102388, 0.297, 310.4878235, 0.297, -58.841465, 0.297, 101.4024429, 0.0114231, 0.0532082, 0.297, -85.7317123, 0.297, 0.2439024, 0.297, 90.5487823, 0.0114231, -0.0743572, 0.297, -447.9268494, 0.297, 20.6097565, 0.297, -17.560976, 0.0114231, -0.0359197, 0.297, 133.1707306, 0.297, 85.4878082, 0.297, 48.0487823, , , , , , , , , , , , , , , , , , , , , , 
0.0119423, 0.005539, 0.3105, -329.5731812, 0.3105, -3.7804878, 0.3105, 91.8902435, 0.0119423, 0.0733501, 0.3105, 278.7804871, 0.3105, 10.3658543, 0.3105, 38.4146347, 0.0119423, -0.114641, 0.3105, -324.5731812, 0.3105, 757.1951294, 0.3105, 83.9024429, 0.0119423, -0.012253, 0.3105, -84.6951218, 0.3105, -0.9756098, 0.3105, -44.0243912, 0.0119423, -0.0109102, 0.3105, 312.4390259, 0.3105, -23.780489, 0.3105, 65.5487823, 0.0119423, 0.1139696, 0.3105, 21.280489, 0.3105, -293.2926941, 0.3105, -99.8780518, 0.0119423, -0.1072557, 0.3105, -370.7926941, 0.3105, -194.0853729, 0.3105, 47.9268303, 0.0119423, -0.0058747, 0.3105, 61.0975609, 0.3105, 153.3536682, 0.3105, -20.060976, , , , , , , , , , , , , , , , , , , , , , 
0.0124615, -0.0209812, 0.324, -440, 0.324, -33.5365868, 0.324, 68.3536606, 0.0124615, 0.0605936, 0.324, 387.4390259, 0.324, -73.1097565, 0.324, 107.1951218, 0.0124615, -0.0998703, 0.324, 22.8658543, 0.324, -405.5487976, 0.324, 37.1951218, 0.0124615, -0.0020142, 0.324, -9.6341467, 0.324, 78.5365906, 0.324, 92.3170776, 0.0124615, -0.0115816, 0.324, -7.6219516, 0.324, 446.8902588, 0.324, 122.0731735, 0.0124615, 0.0978561, 0.324, -97.5, 0.324, 239.8780518, 0.324, -73.4756088, 0.0124615, -0.1279011, 0.324, 375.3658752, 0.324, 418.3536682, 0.324, 104.5731735, 0.0124615, 0.0050355, 0.324, -110, 0.324, 229.0243988, 0.324, -123.6585388, , , , , , , , , , , , , , , , , , , , , , 
0.0129808, -0.0538796, 0.3375, -588.8414917, 0.3375, 59.0853691, 0.3375, 75.1219559, 0.0129808, 0.0454871, 0.3375, 533.2316895, 0.3375, -137.0121918, 0.3375, 176.4024506, 0.0129808, -0.0903029, 0.3375, 486.9512329, 0.3375, -332.2561035, 0.3375, 332.6219482, 0.0129808, 0.0199741, 0.3375, 91.8902435, 0.3375, 88.0487823, 0.3375, 196.7682953, 0.0129808, -0.0115816, 0.3375, 38.7195129, 0.3375, 133.3536682, 0.3375, 106.0975647, 0.0129808, 0.0152743, 0.3375, -368.9634094, 0.3375, 156.2804871, 0.3375, 154.3902435, 0.0129808, -0.1344472, 0.3375, -39.4512215, 0.3375, 322.9268494, 0.3375, -134.0243988, 0.0129808, -0.0219883, 0.3375, -203.1097565, 0.3375, 136.7073212, 0.3375, -72.9878082, , , , , , , , , , , , , , , , , , , , , , 
0.0135, -0.0948348, 0.351, -850.6707764, 0.351, 45, 0.351, -1.8292683, 0.0135, 0.0218204, 0.351, 574.0853882, 0.351, -9.3292685, 0.351, 231.2804871, 0.0135, -0.0891279, 0.351, 199.3292694, 0.351, 689.6341553, 0.351, 597.0731812, 0.0135, 0.0417945, 0.351, 219.512207, 0.351, -47.6829262, 0.351, 333.5975647, 0.0135, -0.0130922, 0.351, -330.6097717, 0.351, -443.0487976, 0.351, -110.5487823, 0.0135, 0.0099031, 0.351, -433.1097717, 0.351, -119.6951218, 0.351, 342.8658752, 0.0135, -0.1337758, 0.351, 83.3536606, 0.351, -32.1951218, 0.351, -25.9756107, 0.0135, -0.043473, 0.351, -345.4878235, 0.351, 127.5, 0.351, 15.1219511, , , , , , , , , , , , , , , , , , , , , , 
0.0140192, -0.1421683, 0.3645, -1054.512207, 0.3645, 88.7195129, 0.3645, 23.5365868, 0.0140192, -0.0046998, 0.3645, 613.7805176, 0.3645, 112.4390259, 0.3645, 262.2561035, 0.0140192, -0.0938277, 0.3645, 26.280489, 0.3645, 46.9512215, 0.3645, 174.0243988, 0.0140192, 0.0471656, 0.3645, 0, 0.3645, 0, 0.3645, 0, 0.0140192, -0.0149386, 0.3645, -44.0243912, 0.3645, -221.0365906, 0.3645, -107.5, 0.0140192, 0.0589151, 0.3645, -159.5121918, 0.3645, 495.1219482, 0.3645, 15.6707325, 0.0140192, -0.1263905, 0.3645, 128.1707306, 0.3645, -543.2316895, 0.3645, -89.0853653, 0.0140192, -0.0310521, 0.3645, -691.4024658, 0.3645, 36.7073174, 0.3645, 18.780489, , , , , , , , , , , , , , , , , , , , , , 
0.0145385, -0.1639887, 0.378, -681.0975952, 0.378, 41.7073174, 0.378, 132.3170776, 0.0145385, -0.0182956, 0.378, 598.5366211, 0.378, 175.5487823, 0.378, 365.7926941, 0.0145385, -0.093492, 0.378, -77.6219559, 0.378, 255.7926941, 0.378, 123.0487823, 0.0145385, 0.0421302, 0.378, 584.5731812, 0.378, -228.9634247, 0.378, 872.3170776, 0.0145385, -0.0169528, 0.378, 314.8780518, 0.378, -7.9878049, 0.378, -27.1951218, 0.0145385, 0.0191348, 0.378, -62.7439041, 0.378, -108.9634171, 0.378, 29.1463413, 0.0145385, -0.1092699, 0.378, -265.7926941, 0.378, -80.2439041, 0.378, 63.9634171, 0.0145385, 0.0046998, 0.378, -1021.4024658, 0.378, -314.6951294, 0.378, 15.6707325, , , , , , , , , , , , , , , , , , , , , , 
0.0150577, -0.152575, 0.3915, -463.1097717, 0.3915, 254.0243988, 0.3915, 141.646347, 0.0150577, -0.0261845, 0.3915, 508.5365906, 0.3915, 256.4634094, 0.3915, 414.6951294, 0.0150577, -0.0894636, 0.3915, 89.146347, 0.3915, -347.9878235, 0.3915, 158.1097565, 0.0150577, 0.0448157, 0.3915, 0, 0.3915, 0, 0.3915, 0, 0.0150577, -0.0179599, 0.3915, 194.9390259, 0.3915, -80.2439041, 0.3915, -107.3780518, 0.0150577, -0.0874495, 0.3915, -146.9512177, 0.3915, -346.7073364, 0.3915, 89.4512253, 0.0150577, -0.0897993, 0.3915, -492.0731812, 0.3915, 112.68293, 0.3915, 395.73172, 0.0150577, 0.0223239, 0.3915, -1316.2805176, 0.3915, -623.475647, 0.3915, 162.6829376, , , , , , , , , , , , , , , , , , , , , , 
0.0155769, -0.1277333, 0.405, 0, 0.405, 0, 0.405, 0, 0.0155769, -0.040116, 0.405, 419.2073364, 0.405, 313.6585388, 0.405, 459.3902588, 0.0155769, -0.090135, 0.405, 144.6341553, 0.405, -264.512207, 0.405, 101.646347, 0.0155769, 0.0673075, 0.405, 819.8170776, 0.405, -306.7073364, 0.405, 1240.487793, 0.0155769, -0.0171206, 0.405, 156.8902435, 0.405, 94.2073212, 0.405, 17.9268303, 0.0155769, -0.1394827, 0.405, -104.2682953, 0.405, -244.2682953, 0.405, 42.6219521, 0.0155769, -0.0726787, 0.405, -119.4512253, 0.405, 47.1951218, 0.405, -15.4268293, 0.0155769, 0.0199741, 0.405, 0, 0.405, 0, 0.405, 0, , , , , , , , , , , , , , , , , , , , , , 
0.0160962, -0.1092699, 0.4185, -327.8658752, 0.4185, 458.1707458, 0.4185, -4.6951222, 0.0160962, -0.0532082, 0.4185, 361.0365906, 0.4185, 179.0853729, 0.4185, 476.2195129, 0.0160962, -0.0928206, 0.4185, 68.5365906, 0.4185, -82.6219559, 0.4185, 7.4390244, 0.0160962, 0.0803998, 0.4185, 860.8536987, 0.4185, -207.3780518, 0.4185, 1206.2194824, 0.0160962, -0.0169528, 0.4185, 38.6585388, 0.4185, 134.6951294, 0.4185, 42.1951218, 0.0160962, -0.1149767, 0.4185, -56.1585388, 0.4185, -132.3780518, 0.4185, 23.5975609, 0.0160962, -0.0480049, 0.4185, -76.0975647, 0.4185, 126.646347, 0.4185, -19.4512196, 0.0160962, 0.0005035, 0.4185, -1628.4146729, 0.4185, 102.9268341, 0.4185, 390.8536682, , , , , , , , , , , , , , , , , , , , , , 
0.0166154, -0.121355, 0.432, -80.0609741, 0.432, 376.7683105, 0.432, -206.2195129, 0.0166154, -0.0562295, 0.432, 132.86586, 0.432, 329.0853882, 0.432, 424.8170776, 0.0166154, -0.0914778, 0.432, 38.1707344, 0.432, 47.3170738, 0.432, 98.9634171, 0.0166154, 0.0481727, 0.432, 876.1585693, 0.432, 64.4512177, 0.432, 1347.3171387, 0.0166154, -0.0176242, 0.432, 117.3780518, 0.432, -123.0487823, 0.432, -53.2926826, 0.0166154, -0.087953, 0.432, -97.8048782, 0.432, 60, 0.432, 39.0243912, 0.0166154, -0.0095674, 0.432, -154.8170776, 0.432, -97.7439041, 0.432, 92.1341476, 0.0166154, -0.0256809, 0.432, -1540.7316895, 0.432, 607.8048706, 0.432, 73.3536606, , , , , , , , , , , , , , , , , , , , , , 
0.0171346, -0.1441825, 0.4455, -191.8292694, 0.4455, -45.3658562, 0.4455, -398.9634094, 0.0171346, -0.0466621, 0.4455, -371.3414612, 0.4455, 215.1829376, 0.4455, 325.0609741, 0.0171346, -0.0881209, 0.4455, -11.8902445, 0.4455, 57.68293, 0.4455, 246.2804871, 0.0171346, 0.0065461, 0.4455, 706.7683105, 0.4455, 1500.6097412, 0.4455, 942.9268799, 0.0171346, -0.0182956, 0.4455, 132.6829224, 0.4455, -157.7439117, 0.4455, -128.6585388, 0.0171346, -0.090135, 0.4455, -213.5975647, 0.4455, 59.6951218, 0.4455, 18.9634151, 0.0171346, 0.0283665, 0.4455, -127.4390259, 0.4455, -236.8902435, 0.4455, 90.2439041, 0.0171346, -0.0454871, 0.4455, -1304.6951904, 0.4455, 1859.2073975, 0.4455, -307.3170776, , , , , , , , , , , , , , , , , , , , , , 
0.0176538, -0.1304189, 0.459, -173.7804871, 0.459, -401.5853882, 0.459, -293.5975647, 0.0176538, -0.0290379, 0.459, -571.8902588, 0.459, 86.2804871, 0.459, 69.3292694, 0.0176538, -0.0852674, 0.459, 17.3170738, 0.459, -148.1707306, 0.459, 217.3780518, 0.0176538, -0.0031891, 0.459, 323.4146423, 0.459, 1997.987793, 0.459, 822.8048706, 0.0176538, -0.0169528, 0.459, 81.5243912, 0.459, -147.4390259, 0.459, -123.5365906, 0.0176538, -0.0767071, 0.459, -209.6951294, 0.459, -63.4756126, 0.459, 2.1341465, 0.0176538, 0.0522011, 0.459, -108.9634171, 0.459, -182.6829376, 0.459, 84.3902435, 0.0176538, -0.0659648, 0.459, -819.8170776, 0.459, 1188.2316895, 0.459, -834.0244141, , , , , , , , , , , , , , , , , , , , , , 
0.0181731, -0.0793927, 0.4725, 50.6707344, 0.4725, 104.0243912, 0.4725, 19.8780499, 0.0181731, -0.0038605, 0.4725, -466.2804871, 0.4725, -66.9512177, 0.4725, -207.1341553, 0.0181731, -0.0854353, 0.4725, 73.5365906, 0.4725, -232.6219635, 0.4725, 94.7561035, 0.0181731, 0.0171206, 0.4725, -339.6951294, 0.4725, -16.0975609, 0.4725, 914.1463623, 0.0181731, -0.0140993, 0.4725, 108.2926865, 0.4725, -154.6341553, 0.4725, -141.646347, 0.0181731, -0.0364233, 0.4725, -111.4634171, 0.4725, -232.1341553, 0.4725, 33.1707306, 0.0181731, 0.0626078, 0.4725, -108.4756088, 0.4725, -93.5365906, 0.4725, 127.3780518, 0.0181731, -0.043473, 0.4725, -621.7683105, 0.4725, 438.2926941, 0.4725, -801.1585693, , , , , , , , , , , , , , , , , , , , , , 
0.0186923, -0.0310521, 0.486, -22.0121956, 0.486, 777.6829224, 0.486, 41.8902435, 0.0186923, 0.0263523, 0.486, 656.7683105, 0.486, -460, 0.486, 216.8292694, 0.0186923, -0.090135, 0.486, 118.9024429, 0.486, -264.2683105, 0.486, 67.1951218, 0.0186923, 0.0495155, 0.486, -457.8049011, 0.486, -580.487793, 0.486, 565.4268188, 0.0186923, -0.0139315, 0.486, 143.4146423, 0.486, -18.1097565, 0.486, -164.4512177, 0.0186923, -0.0204776, 0.486, -75.3658524, 0.486, -311.0365906, 0.486, 71.2195129, 0.0186923, 0.0595865, 0.486, -162.0731812, 0.486, -83.2926865, 0.486, 169.2682953, 0.0186923, 0.014435, 0.486, -333.5975647, 0.486, -579.8780518, 0.486, -556.5244141, , , , , , , , , , , , , , , , , , , , , , 
0.0192115, -0.002182, 0.4995, -516.2195435, 0.4995, -77.3170776, 0.4995, -263.3536682, 0.0192115, 0.0515297, 0.4995, -23.2926826, 0.4995, 207.7439117, 0.4995, 516.2805176, 0.0192115, -0.0904707, 0.4995, 139.7561035, 0.4995, -177.1951294, 0.4995, 59.9390259, 0.0192115, 0.079057, 0.4995, -251.7682953, 0.4995, -487.8049011, 0.4995, 475.0609741, 0.0192115, -0.0142672, 0.4995, 79.7560959, 0.4995, 52.7439041, 0.4995, 9.2073174, 0.0192115, 0.0184634, 0.4995, -84.0243912, 0.4995, -192.3780518, 0.4995, 87.0121994, 0.0192115, 0.0488441, 0.4995, -147.9268341, 0.4995, -15.6707325, 0.4995, 106.2804871, 0.0192115, 0.0448157, 0.4995, -110.7926865, 0.4995, -1018.2317505, 0.4995, -342.1341553, , , , , , , , , , , , , , , , , , , , , , 
0.0197308, 0.0250095, 0.513, -398.1097717, 0.513, 399.0244141, 0.513, -379.0244141, 0.0197308, 0.0642863, 0.513, 140.36586, 0.513, 31.1585369, 0.513, 386.2195129, 0.0197308, -0.0827497, 0.513, 76.0975647, 0.513, 46.7073174, 0.513, 41.7073174, 0.0197308, 0.1025559, 0.513, -428.3536682, 0.513, -389.5731812, 0.513, 59.4512215, 0.0197308, -0.0135958, 0.513, 112.1341476, 0.513, -47.3780518, 0.513, 23.9024391, 0.0197308, 0.0975204, 0.513, -62.4390259, 0.513, 31.8902454, 0.513, 85.4878082, 0.0197308, 0.0370947, 0.513, -74.6951218, 0.513, -48.3536606, 0.513, -22.0121956, 0.0197308, 0.0874495, 0.513, 59.0243912, 0.513, -323.2926941, 0.513, -303.0487976, , , , , , , , , , , , , , , , , , , , , , 
0.02025, 0.0565652, 0.5265, -239.9390259, 0.5265, -37.9268303, 0.5265, -314.6951294, 0.02025, 0.0679789, 0.5265, -212.6829376, 0.5265, 96.3414688, 0.5265, 447.012207, 0.02025, -0.0753643, 0.5265, -2.3780489, 0.5265, 124.8780518, 0.5265, 181.4024506, 0.02025, 0.1240406, 0.5265, -566.1585693, 0.5265, 38.6585388, 0.5265, -212.2561035, 0.02025, -0.0115816, 0.5265, 130.0609741, 0.5265, -57.3170738, 0.5265, -17.2560978, 0.02025, 0.1131304, 0.5265, -154.2682953, 0.5265, 148.5365906, 0.5265, 40.3048782, 0.02025, 0.0265202, 0.5265, -86.5243912, 0.5265, -98.1097565, 0.5265, -3.2926829, 0.02025, 0.1404898, 0.5265, 437.6219482, 0.5265, -198.9024506, 0.5265, -408.4146423, , , , , , , , , , , , , , , , , , , , , , 
0.0207692, 0.0817426, 0.54, -215.5487823, 0.54, -443.4756165, 0.54, -209.0853729, 0.0207692, 0.0715038, 0.54, 236.0365906, 0.54, -471.0975647, 0.54, 273.9634094, 0.0207692, -0.0706645, 0.54, -18.1097565, 0.54, -39.8780479, 0.54, 153.5365906, 0.0207692, 0.1394827, 0.54, -464.8170776, 0.54, 304.3292847, 0.54, -236.5243988, 0.0207692, -0.008896, 0.54, 116.9512253, 0.54, -56.5243912, 0.54, -100.3658524, 0.0207692, 0.0414588, 0.54, -121.2195129, 0.54, -8.2926826, 0.54, 11.5243902, 0.0207692, 0.0149386, 0.54, -100.2439041, 0.54, -73.3536606, 0.54, 47.8048782, 0.0207692, 0.1263905, 0.54, 478.9024353, 0.54, 197.4390259, 0.54, -370, , , , , , , , , , , , , , , , , , , , , , 
0.0212885, 0.0961776, 0.5535, -148.5365906, 0.5535, -264.0853577, 0.5535, -102.1951218, 0.0212885, 0.0777142, 0.5535, 303.8414612, 0.5535, -503.2926941, 0.5535, 60.4878044, 0.0212885, -0.0659648, 0.5535, 10.6097565, 0.5535, -146.2804871, 0.5535, 83.1097565, 0.0212885, 0.1435111, 0.5535, -296.5243835, 0.5535, 355.1219482, 0.5535, -270.9756165, 0.0212885, -0.0075532, 0.5535, 175.36586, 0.5535, -121.646347, 0.5535, -225.9146423, 0.0212885, -0.0256809, 0.5535, -14.7560978, 0.5535, -287.5, 0.5535, 30.4878063, 0.0212885, 0.0003357, 0.5535, -123.9634171, 0.5535, -206.3414612, 0.5535, 110.7926865, 0.0212885, 0.0827497, 0.5535, 392.3170776, 0.5535, 243.1097565, 0.5535, -201.8292694, , , , , , , , , , , , , , , , , , , , , , 
0.0218077, 0.1028916, 0.567, -33.841465, 0.567, -152.3170776, 0.567, 18.2926826, 0.0218077, 0.085771, 0.567, 351.8292847, 0.567, -85, 0.567, -118.2317123, 0.0218077, -0.0619364, 0.567, 84.3292694, 0.567, -343.9024353, 0.567, 3.9634147, 0.0218077, 0.1351186, 0.567, -240.7926941, 0.567, 35, 0.567, -366.0975647, 0.0218077, -0.0070497, 0.567, 202.7439117, 0.567, -163.7804871, 0.567, -262.1951294, 0.0218077, -0.0397803, 0.567, 10.9756098, 0.567, -366.5243835, 0.567, 55.9756126, 0.0218077, -0.0176242, 0.567, -138.5975647, 0.567, -261.0365906, 0.567, 136.646347, 0.0218077, 0.0894636, 0.567, 435.243927, 0.567, 75.7926865, 0.567, -22.7439022, , , , , , , , , , , , , , , , , , , , , , 
0.0223269, 0.1059129, 0.5805, 193.4756165, 0.5805, -6.4634147, 0.5805, 33.5975609, 0.0223269, 0.0924849, 0.5805, 86.1585388, 0.5805, -25.1219521, 0.5805, -119.9390259, 0.0223269, -0.0592508, 0.5805, 105.3658524, 0.5805, -337.1341553, 0.5805, 32.1341476, 0.0223269, 0.1173266, 0.5805, -335.9146423, 0.5805, -228.23172, 0.5805, -293.1707458, 0.0223269, -0.0065461, 0.5805, 176.0975647, 0.5805, -56.9512215, 0.5805, -113.5365906, 0.0223269, -0.0270237, 0.5805, -20.4268303, 0.5805, -350.4878235, 0.5805, 75.8536606, 0.0223269, -0.0417945, 0.5805, -132.5609741, 0.5805, -179.8780518, 0.5805, 89.5121994, 0.0223269, 0.1347829, 0.5805, 429.0853882, 0.5805, -194.0243988, 0.5805, -76.0365906, , , , , , , , , , , , , , , , , , , , , , 
0.0228462, 0.1005417, 0.594, 104.5731735, 0.594, -91.4024429, 0.594, -85.9756088, 0.0228462, 0.0938277, 0.594, -356.2195129, 0.594, -349.5731812, 0.594, -3.7804878, 0.0228462, -0.057908, 0.594, 15.1829271, 0.594, -235.4878082, 0.594, 23.9024391, 0.0228462, 0.0997024, 0.594, -289.1463623, 0.594, -250.36586, 0.594, -225.0609741, 0.0228462, -0.0028534, 0.594, 136.5853729, 0.594, 46.0975609, 0.594, -63.9024391, 0.0228462, -0.0287022, 0.594, 4.5731707, 0.594, -223.3536682, 0.594, 25.6097565, 0.0228462, -0.0699931, 0.594, -85.2439041, 0.594, -83.1707306, 0.594, 81.4024429, 0.0228462, 0.1609674, 0.594, 334.7561035, 0.594, -262.8048706, 0.594, -116.3414688, , , , , , , , , , , , , , , , , , , , , , 
0.0233654, 0.0891279, 0.6075, 216.5853729, 0.6075, 23.0487804, 0.6075, -192.9268341, 0.0233654, 0.0882887, 0.6075, -582.0731812, 0.6075, -28.5365868, 0.6075, 110.9756088, 0.0233654, -0.0580758, 0.6075, -43.3536606, 0.6075, -75.1219559, 0.6075, -10.7317076, 0.0233654, 0.0864424, 0.6075, -137.9268341, 0.6075, -125.9146347, 0.6075, -215.4268341, 0.0233654, -0.0010071, 0.6075, 88.1707306, 0.6075, 95.9146347, 0.6075, -99.3292694, 0.0233654, -0.0377661, 0.6075, 63.5365868, 0.6075, -153.4146423, 0.6075, 32.1951218, 0.0233654, -0.0948348, 0.6075, -45.1829262, 0.6075, 18.8414631, 0.6075, 114.3292694, 0.0233654, 0.1428397, 0.6075, 200.4268341, 0.6075, -166.0365906, 0.6075, -53.1707344, , , , , , , , , , , , , , , , , , , , , , 
0.0238846, 0.0817426, 0.621, 206.7073212, 0.621, 78.9024429, 0.621, -222.9878082, 0.0238846, 0.0803998, 0.621, -416.6463623, 0.621, 434.9390259, 0.621, 59.0243912, 0.0238846, -0.0570687, 0.621, -26.7682934, 0.621, -45.6707344, 0.621, -45.8536606, 0.0238846, 0.068986, 0.621, -43.9024391, 0.621, -49.5121956, 0.621, -222.0731812, 0.0238846, -0.0005035, 0.621, 76.4634171, 0.621, 116.7682953, 0.621, -101.5853653, 0.0238846, -0.0186313, 0.621, 75.3658524, 0.621, -87.4390259, 0.621, 29.3902454, 0.0238846, -0.1169909, 0.621, -11.280488, 0.621, 70.2439041, 0.621, 138.8414612, 0.0238846, 0.0924849, 0.621, 172.1951294, 0.621, -70.9146347, 0.621, -6.280488, , , , , , , , , , , , , , , , , , , , , , 
0.0244038, 0.0787213, 0.6345, 90.7926865, 0.6345, 97.1951218, 0.6345, -185.4878082, 0.0244038, 0.072343, 0.6345, -321.8902588, 0.6345, 389.512207, 0.6345, 25, 0.0244038, -0.0535439, 0.6345, 63.2926826, 0.6345, -175.9756165, 0.6345, -185.6707306, 0.0244038, 0.047837, 0.6345, -15.3048782, 0.6345, 22.6829281, 0.6345, -191.8292694, 0.0244038, 0.0031891, 0.6345, 70.9146347, 0.6345, 94.5731735, 0.6345, -100.7317123, 0.0244038, -0.0176242, 0.6345, 185.0609741, 0.6345, -289.3902588, 0.6345, 63.4146347, 0.0244038, -0.1386435, 0.6345, -9.5121956, 0.6345, 47.0121956, 0.6345, 149.5731812, 0.0244038, 0.0506905, 0.6345, 182.1951294, 0.6345, 67.2560959, 0.6345, 62.1341476, , , , , , , , , , , , , , , , , , , , , , 
0.0249231, 0.072343, 0.648, 82.3780518, 0.648, 109.5121994, 0.648, -135.3048859, 0.0249231, 0.0616007, 0.648, -246.1585388, 0.648, 230.4878082, 0.648, 7.8048782, 0.0249231, -0.0501869, 0.648, 183.7804871, 0.648, -459.3902588, 0.648, -121.646347, 0.0249231, 0.0280308, 0.648, -12.6219511, 0.648, 57.9268303, 0.648, -174.6951294, 0.0249231, 0.0075532, 0.648, 47.0121956, 0.648, 66.4634171, 0.648, -132.6219482, 0.0249231, -0.0357519, 0.648, 79.6341476, 0.648, -325.5487976, 0.648, 88.5365906, 0.0249231, -0.1566033, 0.648, -1.7682927, 0.648, -32.8658562, 0.648, 152.86586, 0.0249231, 0.0374304, 0.648, 195.7317047, 0.648, 103.7804871, 0.648, 66.7682953, , , , , , , , , , , , , , , , , , , , , , 
0.0254423, 0.0532082, 0.6615, 179.4512177, 0.6615, 71.5243912, 0.6615, -111.5853653, 0.0254423, 0.0515297, 0.6615, -211.8902435, 0.6615, 24.5731716, 0.6615, -1.6463414, 0.0254423, -0.0491798, 0.6615, 254.6951294, 0.6615, -364.4512329, 0.6615, -30.060976, 0.0254423, 0.0038605, 0.6615, -8.5365858, 0.6615, 114.2682953, 0.6615, -163.0487823, 0.0254423, 0.0109102, 0.6615, 18.780489, 0.6615, 70, 0.6615, -162.8048859, 0.0254423, 0.0119173, 0.6615, -43.2926826, 0.6615, -221.7073212, 0.6615, 140.1219482, 0.0254423, -0.1607996, 0.6615, 16.0975609, 0.6615, -58.2926826, 0.6615, 154.9390259, 0.0254423, 0.0317235, 0.6615, 166.0975647, 0.6615, 168.4756165, 0.6615, 40.9146347, , , , , , , , , , , , , , , , , , , , , , 
0.0259615, 0.0078889, 0.675, 255.1829376, 0.675, 39.5731735, 0.675, -85.7317123, 0.0259615, 0.04448, 0.675, -184.6341553, 0.675, -95.7317123, 0.675, -16.7073174, 0.0259615, -0.0485084, 0.675, 156.9512177, 0.675, -61.2804909, 0.675, 14.5121956, 0.0259615, -0.0253452, 0.675, -7.8048782, 0.675, 138.2317047, 0.675, -149.0853729, 0.0259615, 0.0109102, 0.675, 21.0365868, 0.675, 25.7317085, 0.675, -177.86586, 0.0259615, 0.1005417, 0.675, 3.9634147, 0.675, -159.146347, 0.675, 172.0731812, 0.0259615, -0.1545892, 0.675, 35, 0.675, -47.9268303, 0.675, 153.6585388, 0.0259615, 0.0186313, 0.675, 134.8780518, 0.675, 162.4390259, 0.675, 16.5243912, , , , , , , , , , , , , , , , , , , , , , 
0.0264808, -0.0582437, 0.6885, 298.9634094, 0.6885, 43.2317085, 0.6885, -45.0609779, 0.0264808, 0.036759, 0.6885, -187.1951294, 0.6885, -68.7804871, 0.6885, -49.5121956, 0.0264808, -0.0491798, 0.6885, 128.1707306, 0.6885, 27.0121956, 0.6885, 46.2195129, 0.0264808, -0.0501869, 0.6885, -4.2073174, 0.6885, 112.1341476, 0.6885, -126.2195129, 0.0264808, 0.0099031, 0.6885, 18.2926826, 0.6885, -0.4268293, 0.6885, -179.6341553, 0.0264808, 0.1025559, 0.6885, -15.4878054, 0.6885, -34.3292694, 0.6885, 171.8902435, 0.0264808, -0.1411612, 0.6885, 54.0853653, 0.6885, -53.9634171, 0.6885, 146.2195129, 0.0264808, 0.0023499, 0.6885, 101.0975647, 0.6885, 112.8048782, 0.6885, 0, , , , , , , , , , , , , , , , , , , , , , 
0.027, -0.105745, 0.702, 251.4024506, 0.702, 66.1585388, 0.702, -18.2926826, 0.027, 0.0236667, 0.702, -164.0853729, 0.702, -35.1829262, 0.702, -62.9268303, 0.027, -0.0498512, 0.702, 173.3536682, 0.702, 129.146347, 0.702, 43.4146347, 0.027, -0.0493477, 0.702, 1.9512196, 0.702, 38.7195129, 0.702, -109.3902435, 0.027, 0.0104067, 0.702, -3.8414636, 0.702, 35.1219521, 0.702, -156.2804871, 0.027, 0.0379339, 0.702, -42.1341476, 0.702, 56.7073174, 0.702, 195.1219482, 0.027, -0.1210193, 0.702, 53.1097565, 0.702, -30.2439022, 0.702, 124.2682953, 0.027, -0.0092317, 0.702, 85.18293, 0.702, 55.9146347, 0.702, 16.4024391, , , , , , , , , , , , , , , , , , , , , , 
0.0275192, -0.1243763, 0.7155, 205.7926941, 0.7155, 46.2804871, 0.7155, -12.1951218, 0.0275192, 0.0035248, 0.7155, -162.1341553, 0.7155, -25.3658543, 0.7155, -74.9390259, 0.0275192, -0.047837, 0.7155, 211.5853729, 0.7155, 125.18293, 0.7155, 48.3536606, 0.0275192, -0.0176242, 0.7155, 34.3292694, 0.7155, 29.5731716, 0.7155, -107.7439041, 0.0275192, 0.0132601, 0.7155, -19.0243912, 0.7155, 70.0609741, 0.7155, -114.0853653, 0.0275192, -0.0075532, 0.7155, -50.1219521, 0.7155, 68.9024429, 0.7155, 205, 0.0275192, -0.1022202, 0.7155, 33.4756088, 0.7155, 20.9146347, 0.7155, 97.4390259, 0.0275192, -0.0209812, 0.7155, 58.841465, 0.7155, 82.6219559, 0.7155, 48.7195129, , , , , , , , , , , , , , , , , , , , , , 
0.0280385, -0.1324331, 0.729, 214.6951294, 0.729, 32.0731697, 0.729, -20.4878044, 0.0280385, -0.0166171, 0.729, -167.3780518, 0.729, 30.7926846, 0.729, -79.8170776, 0.0280385, -0.04448, 0.729, 216.8292694, 0.729, 40.4878044, 0.729, 55.6097565, 0.0280385, 0.0219883, 0.729, 79.0243912, 0.729, 76.2195129, 0.729, -102.3780518, 0.0280385, 0.0166171, 0.729, -33.1707306, 0.729, 97.1951218, 0.729, -77.3780518, 0.0280385, -0.0203098, 0.729, -62.3170738, 0.729, 73.8414688, 0.729, 208.5365906, 0.0280385, -0.0894636, 0.729, 24.5121956, 0.729, 96.0975647, 0.729, 79.9390259, 0.0280385, -0.0323949, 0.729, 51.1585388, 0.729, 96.7073212, 0.729, 75.5487823, , , , , , , , , , , , , , , , , , , , , , 
0.0285577, -0.1334401, 0.7425, 281.7683105, 0.7425, 68.4756088, 0.7425, -51.4634171, 0.0285577, -0.0307164, 0.7425, -158.6585388, 0.7425, 165.4268341, 0.7425, -68.7804871, 0.0285577, -0.0411231, 0.7425, 228.1097565, 0.7425, -5.9756098, 0.7425, 52.6829262, 0.0285577, -0.0008392, 0.7425, 115.7926865, 0.7425, 134.5121918, 0.7425, -88.2317123, 0.0285577, 0.0193027, 0.7425, -39.7560997, 0.7425, 113.7195129, 0.7425, -53.4146347, 0.0285577, -0.0216526, 0.7425, -64.7560959, 0.7425, 33.9024391, 0.7425, 218.8414612, 0.0285577, -0.0780499, 0.7425, 25.1829281, 0.7425, 129.8170776, 0.7425, 83.4756088, 0.0285577, -0.0505226, 0.7425, 20, 0.7425, 140.3048859, 0.7425, 84.5731735, , , , , , , , , , , , , , , , , , , , , , 
0.0290769, -0.1156481, 0.756, 292.3170776, 0.756, 80, 0.756, -53.5975609, 0.0290769, -0.0384375, 0.756, -240.5487823, 0.756, 308.1707458, 0.756, -85.18293, 0.0290769, -0.0404517, 0.756, 235.5487823, 0.756, -38.4146347, 0.756, 32.7439041, 0.0290769, -0.0683146, 0.756, 112.1951218, 0.756, 57.9268303, 0.756, -193.1707306, 0.0290769, 0.0193027, 0.756, -19.5121956, 0.756, 121.3414688, 0.756, -47.0731735, 0.0290769, -0.0285344, 0.756, -46.5243912, 0.756, -19.6341476, 0.756, 222.1341553, 0.0290769, -0.0619364, 0.756, 36.0365868, 0.756, 144.7561035, 0.756, 93.9634171, 0.0290769, -0.0703288, 0.756, -52.2560997, 0.756, 312.3170776, 0.756, 137.86586, , , , , , , , , , , , , , , , , , , , , , 
0.0295962, -0.0881209, 0.7695, 318.5365906, 0.7695, -60.7317085, 0.7695, 60.6097565, 0.0295962, -0.0411231, 0.7695, -185.9146423, 0.7695, 313.7195129, 0.7695, -273.6585388, 0.0295962, -0.0419623, 0.7695, 205.6707306, 0.7695, -24.7560978, 0.7695, -1.097561, 0.0295962, -0.111284, 0.7695, -320.9146423, 0.7695, -155.9756165, 0.7695, 137.9878082, 0.0295962, 0.0166171, 0.7695, -10.3048782, 0.7695, 138.4146423, 0.7695, -28.4756107, 0.0295962, -0.0441444, 0.7695, 3.8414636, 0.7695, 11.0975609, 0.7695, 218.5975647, 0.0295962, -0.0394446, 0.7695, 52.0731735, 0.7695, 171.9512177, 0.7695, 97.6219559, 0.0295962, -0.0817426, 0.7695, -57.3170738, 0.7695, -365.2438965, 0.7695, -195.9146423, , , , , , , , , , , , , , , , , , , , , , 
0.0301154, -0.0743572, 0.783, 40.1829262, 0.783, 17.6829281, 0.783, -33.1707306, 0.0301154, -0.0411231, 0.783, 89.7560959, 0.783, -506.2195129, 0.783, 103.2926865, 0.0301154, -0.043473, 0.783, 191.5853729, 0.783, 123.6585388, 0.783, -81.4024429, 0.0301154, -0.1062486, 0.783, -78.4756088, 0.783, 327.6829224, 0.783, 70.7926865, 0.0301154, 0.0132601, 0.783, -27.7439022, 0.783, 113.1707306, 0.783, -14.5731707, 0.0301154, -0.0538796, 0.783, 64.2682953, 0.783, 28.6585369, 0.783, 193.1097565, 0.0301154, -0.0166171, 0.783, 73.5365906, 0.783, 236.3414764, 0.783, 90.3658524, 0.0301154, -0.0867781, 0.783, -0.1829268, 0.783, 424.8170776, 0.783, -371.9512329, , , , , , , , , , , , , , , , , , , , , , 
0.0306346, -0.0867781, 0.7965, 124.9390259, 0.7965, -0.9146342, 0.7965, 15.4268293, 0.0306346, -0.0417945, 0.7965, -148.8414612, 0.7965, -44.3292694, 0.7965, 101.0365906, 0.0306346, -0.0407874, 0.7965, 160.1829376, 0.7965, 317.9878235, 0.7965, -152.6219482, 0.0306346, -0.0679789, 0.7965, -142.6829376, 0.7965, -124.5121994, 0.7965, -329.2683105, 0.0306346, 0.0119173, 0.7965, -99.5731735, 0.7965, 107.9878082, 0.7965, 67.5609741, 0.0306346, -0.0451514, 0.7965, 151.4024353, 0.7965, 179.0243988, 0.7965, 200.2439117, 0.0306346, -0.0005035, 0.7965, 199.3292694, 0.7965, 73.8414688, 0.7965, 5.9756098, 0.0306346, -0.0817426, 0.7965, 320, 0.7965, 82.4390259, 0.7965, 174.3902435, , , , , , , , , , , , , , , , , , , , , , 
0.0311538, -0.1287404, 0.81, -451.7683105, 0.81, 689.0244141, 0.81, 87.5609741, 0.0311538, -0.0475013, 0.81, -15.2439032, 0.81, 98.9634171, 0.81, 88.6585388, 0.0311538, -0.0320592, 0.81, 198.4756165, 0.81, 279.4512329, 0.81, -113.9634171, 0.0311538, -0.023331, 0.81, -241.4634247, 0.81, 15.1219511, 0.81, -93.4146347, 0.0311538, 0.0125887, 0.81, -246.9512177, 0.81, 278.9024353, 0.81, 147.5609741, 0.0311538, -0.0365911, 0.81, 78.8414688, 0.81, 290.4268494, 0.81, 196.0975647, 0.0311538, 0.0097353, 0.81, 181.4634247, 0.81, 130.0609741, 0.81, -88.4146347, 0.0311538, -0.0595865, 0.81, 197.2561035, 0.81, -23.2926826, 0.81, -165.2439117, , , , , , , , , , , , , , , , , , , , , , 
0.0316731, -0.1757382, 0.8235, 0, 0.8235, 0, 0.8235, 0, 0.0316731, -0.0555581, 0.8235, 158.2926941, 0.8235, 546.5853882, 0.8235, 80.1219559, 0.0316731, -0.0203098, 0.8235, 112.1341476, 0.8235, 185.7317047, 0.8235, -55.9146347, 0.0316731, -0.0117494, 0.8235, -223.4756165, 0.8235, -185.6707306, 0.8235, -80.7317123, 0.0316731, 0.0115816, 0.8235, -326.0975647, 0.8235, 346.5243835, 0.8235, 195.5487823, 0.0316731, -0.051194, 0.8235, 41.341465, 0.8235, 330.0609741, 0.8235, 116.7073212, 0.0316731, 0.0172885, 0.8235, 114.0853653, 0.8235, 272.7438965, 0.8235, -122.1951218, 0.0316731, -0.0256809, 0.8235, 138.4146423, 0.8235, -169.6341553, 0.8235, -173.9634247, , , , , , , , , , , , , , , , , , , , , , 
0.0321923, -0.1831235, 0.837, 0, 0.837, 0, 0.837, 0, 0.0321923, -0.0555581, 0.837, 27.0121956, 0.837, 585.0609741, 0.837, 77.9878082, 0.0321923, -0.0102388, 0.837, -41.2804871, 0.837, 251.8902435, 0.837, -54.2073174, 0.0321923, -0.0352483, 0.837, -87.0731735, 0.837, -3.1707318, 0.837, -65.1219559, 0.0321923, 0.0092317, 0.837, -221.7073212, 0.837, 311.1585388, 0.837, 200.8536682, 0.0321923, -0.0874495, 0.837, 83.6585388, 0.837, 297.5609741, 0.837, 33.4756088, 0.0321923, 0.0260166, 0.837, 95.18293, 0.837, 291.5243835, 0.837, -118.2926865, 0.0321923, 0.0099031, 0.837, 126.4024429, 0.837, 109.9390259, 0.837, -12.0731707, , , , , , , , , , , , , , , , , , , , , , 
0.0327115, -0.1515679, 0.8505, 392.6219482, 0.8505, 310.5487976, 0.8505, -9.4512196, 0.0327115, -0.0498512, 0.8505, -373.23172, 0.8505, 226.8292694, 0.8505, -77.9878082, 0.0327115, -0.0083925, 0.8505, -112.3170776, 0.8505, 210.6707306, 0.8505, -98.7195129, 0.0327115, -0.0404517, 0.8505, -25.8536587, 0.8505, 115, 0.8505, -83.2926865, 0.0327115, 0.008896, 0.8505, -196.1585388, 0.8505, 220.2439117, 0.8505, 158.1707306, 0.0327115, -0.1196765, 0.8505, 134.3902435, 0.8505, 276.4634094, 0.8505, -27.8658543, 0.0327115, 0.0339055, 0.8505, 175.7317047, 0.8505, 227.5, 0.8505, -109.6951218, 0.0327115, 0.0273594, 0.8505, 114.7561035, 0.8505, -7.0731707, 0.8505, -24.5731716, , , , , , , , , , , , , , , , , , , , , , 
0.0332308, -0.1132982, 0.864, 298.1097717, 0.864, -24.0853672, 0.864, 44.0853653, 0.0332308, -0.0458228, 0.864, -504.5731812, 0.864, 20.8536587, 0.864, -289.1463623, 0.0332308, -0.0140993, 0.864, -134.4512177, 0.864, 121.5243912, 0.864, -158.3536682, 0.0332308, -0.030045, 0.864, 0, 0.864, 0, 0.864, 0, 0.0332308, 0.0072175, 0.864, -237.5609741, 0.864, 200.2439117, 0.864, 122.0121994, 0.0332308, -0.110277, 0.864, 160.5487823, 0.864, 253.5975647, 0.864, -58.1097565, 0.0332308, 0.0394446, 0.864, 190.1829376, 0.864, 165.0609741, 0.864, -145.6707306, 0.0332308, 0.0105745, 0.864, 89.0853653, 0.864, 32.5, 0.864, -19.939024, , , , , , , , , , , , , , , , , , , , , , 
0.03375, -0.0877852, 0.8775, 179.146347, 0.8775, -200.3048859, 0.8775, 12.4390249, 0.03375, -0.0438087, 0.8775, 22.7439022, 0.8775, -251.5853729, 0.8775, -254.3292694, 0.03375, -0.0179599, 0.8775, -140.0609741, 0.8775, 39.4512215, 0.8775, -210.9146423, 0.03375, -0.0384375, 0.8775, -24.1463413, 0.8775, 85.4268341, 0.8775, -54.2073174, 0.03375, 0.0052033, 0.8775, -240.1219635, 0.8775, 134.4512177, 0.8775, 83.5365906, 0.03375, -0.0763714, 0.8775, 205.1829376, 0.8775, 120.18293, 0.8775, -113.9634171, 0.03375, 0.0411231, 0.8775, 179.8780518, 0.8775, 140.7317047, 0.8775, -160.4268341, 0.03375, -0.035584, 0.8775, 71.7682953, 0.8775, 61.2195129, 0.8775, -28.9024391, , , , , , , , , , , , , , , , , , , , , , 
0.0342692, -0.0753643, 0.891, 61.6463432, 0.891, -267.6219482, 0.891, -77.8048782, 0.0342692, -0.0391089, 0.891, -0.7926829, 0.891, -353.9024353, 0.891, -106.5853653, 0.0342692, -0.0176242, 0.891, -146.646347, 0.891, -54.8780518, 0.891, -263.3536682, 0.0342692, -0.0609293, 0.891, -24.8780499, 0.891, 86.646347, 0.891, -46.7682953, 0.0342692, 0.0058747, 0.891, -263.7804871, 0.891, -5.609756, 0.891, 44.5731735, 0.0342692, -0.0807355, 0.891, 239.6341553, 0.891, -9.6341467, 0.891, -164.9390259, 0.0342692, 0.0387732, 0.891, 183.6585388, 0.891, 83.1707306, 0.891, -139.2682953, 0.0342692, -0.1059129, 0.891, 75.8536606, 0.891, 105, 0.891, -31.341465, , , , , , , , , , , , , , , , , , , , , , 
0.0347885, -0.0726787, 0.9045, 112.68293, 0.9045, -74.8170776, 0.9045, -77.2560959, 0.0347885, -0.03122, 0.9045, -99.8780518, 0.9045, -137.0121918, 0.9045, -22.8048782, 0.0347885, -0.0193027, 0.9045, -204.8170776, 0.9045, -182.4390259, 0.9045, -303.23172, 0.0347885, -0.0780499, 0.9045, -24.2073174, 0.9045, 44.0243912, 0.9045, -79.146347, 0.0347885, 0.0058747, 0.9045, -247.6219635, 0.9045, -121.0365906, 0.9045, -1.9512196, 0.0347885, -0.1255512, 0.9045, 275.9146423, 0.9045, -84.9390259, 0.9045, -233.4756165, 0.0347885, 0.0360876, 0.9045, 201.0975647, 0.9045, 47.3170738, 0.9045, -70.4268341, 0.0347885, -0.1344472, 0.9045, 89.7560959, 0.9045, 51.7682953, 0.9045, -3.1707318, , , , , , , , , , , , , , , , , , , , , , 
0.0353077, -0.0696574, 0.918, 159.0853729, 0.918, 31.0975609, 0.918, -69.9390259, 0.0353077, -0.0162814, 0.918, -175.5487823, 0.918, 99.5121994, 0.918, -13.1097565, 0.0353077, -0.0250095, 0.918, -296.4634094, 0.918, -263.5365906, 0.918, -305.3658752, 0.0353077, -0.0881209, 0.918, -12.0121956, 0.918, 29.7560978, 0.918, -89.2073212, 0.0353077, 0.0031891, 0.918, -253.3536682, 0.918, -123.5365906, 0.918, 2.6829269, 0.0353077, -0.1428397, 0.918, 306.8902588, 0.918, -117.0731735, 0.918, -315.0609741, 0.0353077, 0.0339055, 0.918, 110.9756088, 0.918, 4.6341462, 0.918, -85.3658524, 0.0353077, -0.0894636, 0.918, 90.7317123, 0.918, 42.0121956, 0.918, 6.280488, , , , , , , , , , , , , , , , , , , , , , 
0.0358269, -0.061265, 0.9315, 164.3902435, 0.9315, 131.7682953, 0.9315, -59.5731735, 0.0358269, 0.0045319, 0.9315, -198.8414612, 0.9315, 189.4512177, 0.9315, -22.0121956, 0.0358269, -0.0251774, 0.9315, -373.7804871, 0.9315, -250, 0.9315, -269.1463623, 0.0358269, -0.093492, 0.9315, -4.0243902, 0.9315, 29.8780499, 0.9315, -91.7073212, 0.0358269, 0.0011749, 0.9315, -207.6219635, 0.9315, -109.5731735, 0.9315, 68.5365906, 0.0358269, -0.1156481, 0.9315, 298.1097717, 0.9315, -108.9634171, 0.9315, -381.5244141, 0.0358269, 0.0330663, 0.9315, 95.18293, 0.9315, 38.5365868, 0.9315, -118.9634171, 0.0358269, -0.0048676, 0.9315, 83.9024429, 0.9315, 35, 0.9315, 12.560976, , , , , , , , , , , , , , , , , , , , , , 
0.0363462, -0.0552224, 0.945, 147.3170776, 0.945, 194.6341553, 0.945, -44.0243912, 0.0363462, 0.0224918, 0.945, -210.4878082, 0.945, 243.5975647, 0.945, -27.3780499, 0.0363462, -0.018967, 0.945, -403.1707458, 0.945, -201.5243988, 0.945, -242.0731812, 0.0363462, -0.0874495, 0.945, -10.7317076, 0.945, 24.0853672, 0.945, -105.6707306, 0.0363462, -0.0005035, 0.945, -184.4512177, 0.945, -57.5609779, 0.945, 112.9268341, 0.0363462, -0.0652934, 0.945, 269.2073364, 0.945, -59.8170738, 0.945, -422.9268494, 0.0363462, 0.0317235, 0.945, 50.3048782, 0.945, 103.9024429, 0.945, -145.9756165, 0.0363462, 0.0924849, 0.945, 92.8658524, 0.945, 34.0243912, 0.945, 21.9512196, , , , , , , , , , , , , , , , , , , , , , 
0.0368654, -0.0538796, 0.9585, 130.4878082, 0.9585, 232.2561035, 0.9585, -32.0731697, 0.0368654, 0.0387732, 0.9585, -179.2682953, 0.9585, 189.512207, 0.9585, -33.5365868, 0.0368654, -0.0135958, 0.9585, -453.0487976, 0.9585, -89.0853653, 0.9585, -223.5365906, 0.0368654, -0.0679789, 0.9585, -18.1707325, 0.9585, 45, 0.9585, -104.5731735, 0.0368654, -0.0008392, 0.9585, -120, 0.9585, 77.6219559, 0.9585, 186.646347, 0.0368654, -0.0285344, 0.9585, 265.4878235, 0.9585, 90.9146347, 0.9585, -442.6829224, 0.0368654, 0.0280308, 0.9585, 93.9634171, 0.9585, 237.5609741, 0.9585, -123.5365906, 0.0368654, 0.1270619, 0.9585, 97.68293, 0.9585, 48.7804871, 0.9585, 17.8658543, , , , , , , , , , , , , , , , , , , , , , 
0.0373846, -0.057908, 0.972, 111.4634171, 0.972, 207.3780518, 0.972, -2.5, 0.0373846, 0.06009, 0.972, -158.9634247, 0.972, 170.3048859, 0.972, -39.3292694, 0.0373846, -0.0102388, 0.972, -476.4634399, 0.972, 37.2560997, 0.972, -276.6463623, 0.0373846, -0.0505226, 0.972, -34.5121956, 0.972, 105.5487823, 0.972, -94.5731735, 0.0373846, -0.002182, 0.972, -32.7439041, 0.972, 143.5365906, 0.972, 177.86586, 0.0373846, -0.0417945, 0.972, 318.2926941, 0.972, 218.5365906, 0.972, -403.3536682, 0.0373846, 0.0250095, 0.972, 112.6219559, 0.972, 225.7926941, 0.972, -83.9024429, 0.0373846, 0.0730144, 0.972, 100.7926865, 0.972, 84.8170776, 0.972, -18.7195129, , , , , , , , , , , , , , , , , , , , , , 
0.0379038, -0.0632792, 0.9855, 87.3780518, 0.9855, 137.5609741, 0.9855, 34.3902435, 0.0379038, 0.0871138, 0.9855, -123.2317123, 0.9855, 142.6829376, 0.9855, -57.8658562, 0.0379038, -0.0072175, 0.9855, -452.1951294, 0.9855, 197.4390259, 0.9855, -309.512207, 0.0379038, -0.0307164, 0.9855, -38.6585388, 0.9855, 155.7926941, 0.9855, -90.3658524, 0.0379038, -0.0050355, 0.9855, 37.0731697, 0.9855, 102.8658524, 0.9855, 132.2561035, 0.0379038, -0.0726787, 0.9855, 347.1341553, 0.9855, 268.0487976, 0.9855, -336.4024353, 0.0379038, 0.024506, 0.9855, 71.2804871, 0.9855, 144.6341553, 0.9855, -85.3048782, 0.0379038, -0.0010071, 0.9855, 96.5243912, 0.9855, 130.5487823, 0.9855, -52.0121956, , , , , , , , , , , , , , , , , , , , , , 
0.0384231, -0.0814069, 0.999, 85.2439041, 0.999, 139.8780518, 0.999, 58.7804909, 0.0384231, 0.1171588, 0.999, -87.7439041, 0.999, 167.0731812, 0.999, -60.8536606, 0.0384231, -0.0011749, 0.999, -379.5731812, 0.999, 230.36586, 0.999, -318.8414612, 0.0384231, 0.0072175, 0.999, -37.5609779, 0.999, 173.7195129, 0.999, -92.5609741, 0.0384231, -0.0082246, 0.999, 72.0121994, 0.999, -36.5853653, 0.999, 80.7926865, 0.0384231, -0.0713359, 0.999, 351.5243835, 0.999, 216.3414612, 0.999, -252.012207, 0.0384231, 0.0226596, 0.999, -43.9634171, 0.999, -19.3292694, 0.999, -109.2073212, 0.0384231, -0.0424659, 0.999, 103.0487823, 0.999, 167.9878082, 0.999, -59.0243912, , , , , , , , , , , , , , , , , , , , , , 
0.0389423, -0.0936599, 1.0125, 77.1951218, 1.0125, 161.8902435, 1.0125, 80.2439041, 0.0389423, 0.1373007, 1.0125, -47.8048782, 1.0125, 213.7195129, 1.0125, -46.0975609, 0.0389423, 0.0038605, 1.0125, -261.2804871, 1.0125, 155.1219482, 1.0125, -281.5853577, 0.0389423, 0.0508583, 1.0125, -40.7317085, 1.0125, 204.3902435, 1.0125, -101.8902435, 0.0389423, -0.0104067, 1.0125, 68.7804871, 1.0125, -172.6219482, 1.0125, 56.5243912, 0.0389423, -0.0298772, 1.0125, 297.9268494, 1.0125, 158.9634247, 1.0125, -161.2804871, 0.0389423, 0.0194705, 1.0125, -160.9146423, 1.0125, -151.4024353, 1.0125, -130.8536682, 0.0389423, -0.0715038, 1.0125, 116.7073212, 1.0125, 200.4878082, 1.0125, -68.4146347, , , , , , , , , , , , , , , , , , , , , , 
0.0394615, -0.0626078, 1.026, 48.1707344, 1.026, 181.2195129, 1.026, 91.5853653, 0.0394615, 0.1451896, 1.026, 0.1829268, 1.026, 244.6951294, 1.026, -35, 0.0394615, 0.0025177, 1.026, -139.0243988, 1.026, 111.8292694, 1.026, -236.5243988, 0.0394615, 0.0696574, 1.026, -50.7926826, 1.026, 239.8170776, 1.026, -108.3536606, 0.0394615, -0.0129244, 1.026, 79.6951218, 1.026, -202.5609741, 1.026, 76.2195129, 0.0394615, 0.0313878, 1.026, 263.5975647, 1.026, 191.4024506, 1.026, -120.5487823, 0.0394615, 0.0142672, 1.026, -210.8536682, 1.026, -139.2682953, 1.026, -132.3170776, 0.0394615, -0.0887922, 1.026, 126.0975647, 1.026, 243.4146423, 1.026, -89.8170776, , , , , , , , , , , , , , , , , , , , , , 
0.0399808, -0.011078, 1.0395, 30.6707325, 1.0395, 192.012207, 1.0395, 96.0365906, 0.0399808, 0.145861, 1.0395, 36.6463432, 1.0395, 228.23172, 1.0395, -29.0853672, 0.0399808, -0.005539, 1.0395, -122.5609818, 1.0395, 306.7683105, 1.0395, -180.9146423, 0.0399808, 0.0627756, 1.0395, -59.0243912, 1.0395, 280.0609741, 1.0395, -116.8292694, 0.0399808, -0.0151064, 1.0395, 100.7926865, 1.0395, -85.4878082, 1.0395, 117.1341476, 0.0399808, 0.0760357, 1.0395, 204.5731812, 1.0395, 288.6585388, 1.0395, -50.4878044, 0.0399808, 0.0114137, 1.0395, -197.6829376, 1.0395, -35.3658562, 1.0395, -128.2317047, 0.0399808, -0.0458228, 1.0395, 132.2561035, 1.0395, 287.6219482, 1.0395, -109.2073212, , , , , , , , , , , , , , , , , , , , , , 
0.0405, 0.0139315, 1.053, -2.9268293, 1.053, 189.8170776, 1.053, 111.5243912, 0.0405, 0.1398184, 1.053, 72.1951218, 1.053, 172.9878082, 1.053, -23.8414631, 0.0405, -0.0162814, 1.053, -107.7439041, 1.053, 449.5731812, 1.053, -56.341465, 0.0405, 0.0525368, 1.053, -60.5487823, 1.053, 329.8170776, 1.053, -126.9512253, 0.0405, -0.0151064, 1.053, 80.5487823, 1.053, 21.0975609, 1.053, 111.0975647, 0.0405, 0.0663005, 1.053, 112.2561035, 1.053, 349.1463623, 1.053, -1.7682927, 0.0405, 0.0112459, 1.053, -89.0853653, 1.053, 42.9268303, 1.053, -127.3780518, 0.0405, 0.0303807, 1.053, 141.4634247, 1.053, 271.9512329, 1.053, -116.5853653, , , , , , , , , , , , , , , , , , , , , , 
0.0410192, 0.0015106, 1.0665, -29.8170738, 1.0665, 170.1829376, 1.0665, 132.0121918, 0.0410192, 0.1297475, 1.0665, 109.5121994, 1.0665, 103.2926865, 1.0665, -35.9146347, 0.0410192, -0.0248417, 1.0665, -33.0487823, 1.0665, 348.7804871, 1.0665, 128.7195129, 0.0410192, 0.0461585, 1.0665, -65.3658524, 1.0665, 323.23172, 1.0665, -140.6097565, 0.0410192, -0.0159457, 1.0665, 12.5, 1.0665, 136.0975647, 1.0665, 103.7804871, 0.0410192, 0.0166171, 1.0665, -94.6951218, 1.0665, 390.4268494, 1.0665, 19.6951218, 0.0410192, 0.0105745, 1.0665, 30.2439022, 1.0665, 59.7560997, 1.0665, -82.9878082, 0.0410192, 0.0716716, 1.0665, 128.9634247, 1.0665, 218.1707306, 1.0665, -126.646347, , , , , , , , , , , , , , , , , , , , , , 
0.0415385, -0.0119173, 1.08, -39.5121956, 1.08, 120.6707382, 1.08, 154.2073212, 0.0415385, 0.1149767, 1.08, 147.3170776, 1.08, 69.7560959, 1.08, -58.7195129, 0.0415385, -0.0236667, 1.08, 65.5487823, 1.08, 181.3414612, 1.08, 161.5853729, 0.0415385, 0.0491798, 1.08, -71.8292694, 1.08, 316.2804871, 1.08, -152.6829376, 0.0415385, -0.0159457, 1.08, -58.5365868, 1.08, 242.8048859, 1.08, 100.6707306, 0.0415385, 0.0117494, 1.08, -172.2561035, 1.08, 223.7195129, 1.08, 85.3658524, 0.0415385, 0.0102388, 1.08, 138.4146423, 1.08, 180.3048859, 1.08, -15.6097565, 0.0415385, 0.0830854, 1.08, 120.9146347, 1.08, 184.0243988, 1.08, -131.7682953, , , , , , , , , , , , , , , , , , , , , , 
0.0420577, -0.0001678, 1.0935, -28.2317085, 1.0935, 54.5121956, 1.0935, 172.9268341, 0.0420577, 0.096849, 1.0935, 170.7926941, 1.0935, 49.4512215, 1.0935, -78.7195129, 0.0420577, -0.0162814, 1.0935, 93.2317123, 1.0935, 391.3414612, 1.0935, 226.8902435, 0.0420577, 0.057908, 1.0935, -90.7926865, 1.0935, 244.2073212, 1.0935, -153.5975647, 0.0420577, -0.0162814, 1.0935, -107.7439041, 1.0935, 278.4146423, 1.0935, 79.2073212, 0.0420577, 0.0605936, 1.0935, -186.2195129, 1.0935, 147.86586, 1.0935, 169.0243988, 0.0420577, 0.0085603, 1.0935, 102.1951218, 1.0935, 312.3780518, 1.0935, 50.9146347, 0.0420577, 0.0908064, 1.0935, 130.7926788, 1.0935, 148.0487823, 1.0935, -128.3536682, , , , , , , , , , , , , , , , , , , , , , 
0.0425769, 0.0360876, 1.107, -13.9024391, 1.107, -21.7682934, 1.107, 202.4390259, 0.0425769, 0.0797284, 1.107, 176.4634247, 1.107, 0.3658537, 1.107, -134.2073212, 0.0425769, -0.0095674, 1.107, 53.4146347, 1.107, -13.1097565, 1.107, -26.280489, 0.0425769, 0.0721752, 1.107, -71.7682953, 1.107, 120.36586, 1.107, -144.7561035, 0.0425769, -0.0149386, 1.107, -106.5243912, 1.107, 259.1463623, 1.107, -57.5609779, 0.0425769, 0.0748608, 1.107, 16.1585369, 1.107, -34.0243912, 1.107, 28.2926826, 0.0425769, 0.0050355, 1.107, 48.5975609, 1.107, 80.0609741, 1.107, 139.2682953, 0.0425769, 0.1012131, 1.107, 144.2073212, 1.107, 240.9146423, 1.107, -95.7317123, , , , , , , , , , , , , , , , , , , , , , 
0.0430962, 0.0609293, 1.1205, -71.8902435, 1.1205, -60.4878044, 1.1205, 222.0731812, 0.0430962, 0.0636149, 1.1205, 324.0853882, 1.1205, -45.4878044, 1.1205, -111.2804871, 0.0430962, -0.0075532, 1.1205, 171.4024506, 1.1205, -354.8170776, 1.1205, 184.6951294, 0.0430962, 0.0864424, 1.1205, -69.2073212, 1.1205, 121.0365906, 1.1205, -152.1951294, 0.0430962, -0.0129244, 1.1205, -163.5975647, 1.1205, 106.5853653, 1.1205, -90.7926865, 0.0430962, 0.0397803, 1.1205, -304.512207, 1.1205, 177.3170776, 1.1205, -20.4268303, 0.0430962, 0.002182, 1.1205, 252.6219635, 1.1205, 150, 1.1205, 45.9756126, 0.0430962, 0.1109483, 1.1205, 150.2439117, 1.1205, 315.6707458, 1.1205, -35.8536606, , , , , , , , , , , , , , , , , , , , , , 
0.0436154, 0.0387732, 1.134, -132.4390259, 1.134, -91.4024429, 1.134, 160.0609741, 0.0436154, 0.0508583, 1.134, 326.4634094, 1.134, -63.1707344, 1.134, -48.1707344, 0.0436154, -0.0068818, 1.134, -73.5975647, 1.134, -87.6219559, 1.134, 404.2073364, 0.0436154, 0.0931563, 1.134, -91.8902435, 1.134, 25.1219521, 1.134, -159.0243988, 0.0436154, -0.0129244, 1.134, -139.5121918, 1.134, -131.4634247, 1.134, -80.5487823, 0.0436154, 0.0203098, 1.134, -432.9878235, 1.134, 201.5853729, 1.134, 38.4756088, 0.0436154, 0.0018463, 1.134, 77.4390259, 1.134, -42.1341476, 1.134, 16.9512196, 0.0436154, 0.0985275, 1.134, 137.4390259, 1.134, 268.9024353, 1.134, 9.0853662, , , , , , , , , , , , , , , , , , , , , , 
0.0441346, -0.0172885, 1.1475, -133.8414612, 1.1475, -95.6097565, 1.1475, 21.8292694, 0.0441346, 0.042298, 1.1475, 0, 1.1475, 0, 1.1475, 0, 0.0441346, -0.0082246, 1.1475, 12.8658543, 1.1475, 93.1097565, 1.1475, 529.3902588, 0.0441346, 0.0897993, 1.1475, -74.7560959, 1.1475, -65, 1.1475, -155.8536682, 0.0441346, -0.0146029, 1.1475, -34.1463432, 1.1475, -656.0366211, 1.1475, -243.7804871, 0.0441346, 0.0240024, 1.1475, -327.4390259, 1.1475, -18.9634151, 1.1475, 183.7195129, 0.0441346, 0.0005035, 1.1475, -82.4390259, 1.1475, -703.9024658, 1.1475, -36.1585388, 0.0441346, 0.0733501, 1.1475, 147.86586, 1.1475, 30.9756107, 1.1475, 42.1951218, , , , , , , , , , , , , , , , , , , , , , 
0.0446538, -0.0538796, 1.161, -151.646347, 1.161, -77.9878082, 1.161, -53.5975609, 0.0446538, 0.0370947, 1.161, 32.8658562, 1.161, -147.0731812, 1.161, 108.1097565, 0.0446538, -0.012253, 1.161, 252.1951294, 1.161, -185.3048859, 1.161, 52.9268303, 0.0446538, 0.082414, 1.161, -19.2073174, 1.161, -86.9512253, 1.161, -136.4634247, 0.0446538, -0.0151064, 1.161, 58.4756126, 1.161, -506.3414612, 1.161, -187.6829376, 0.0446538, 0.0112459, 1.161, -91.646347, 1.161, -185, 1.161, 64.5121994, 0.0446538, 0.0003357, 1.161, -114.8170776, 1.161, -534.2683105, 1.161, -38.5975609, 0.0446538, 0.0616007, 1.161, 161.1585388, 1.161, -94.8780518, 1.161, 78.9024429, , , , , , , , , , , , , , , , , , , , , , 
0.0451731, -0.0407874, 1.1745, -195.0609741, 1.1745, -120.2439041, 1.1745, -40.7317085, 0.0451731, 0.0313878, 1.1745, 9.5121956, 1.1745, -117.4390259, 1.1745, 86.0365906, 0.0451731, -0.0135958, 1.1745, 116.646347, 1.1745, -198.4146423, 1.1745, 22.3170738, 0.0451731, 0.0750286, 1.1745, 36.7073174, 1.1745, -82.9268341, 1.1745, -119.2073212, 0.0451731, -0.0162814, 1.1745, 162.8048859, 1.1745, -182.86586, 1.1745, -131.4634247, 0.0451731, -0.0104067, 1.1745, -88.9024429, 1.1745, -253.9634247, 1.1745, 28.780489, 0.0451731, -0.0001678, 1.1745, -200.8536682, 1.1745, -301.0975647, 1.1745, 80.9146347, 0.0451731, 0.0555581, 1.1745, 130.7317047, 1.1745, -101.0975647, 1.1745, 122.68293, , , , , , , , , , , , , , , , , , , , , , 
0.0456923, -0.0005035, 1.188, -222.1951294, 1.188, -157.3780518, 1.188, -19.3902435, 0.0456923, 0.0251774, 1.188, 115.3048782, 1.188, -91.0975647, 1.188, 32.4390259, 0.0456923, -0.0132601, 1.188, 64.4512177, 1.188, -207.1951294, 1.188, 136.0975647, 0.0456923, 0.0673075, 1.188, 54.6341476, 1.188, -93.5365906, 1.188, -110.3048782, 0.0456923, -0.0162814, 1.188, 148.4146423, 1.188, -53.1097565, 1.188, -144.8170776, 0.0456923, -0.0169528, 1.188, -123.0487823, 1.188, -205.8536682, 1.188, 25.1219521, 0.0456923, 0.0008392, 1.188, -140.36586, 1.188, -36.5853653, 1.188, 100.4878082, 0.0456923, 0.0471656, 1.188, 67.4390259, 1.188, -120.0609818, 1.188, 162.5, , , , , , , , , , , , , , , , , , , , , , 
0.0462115, 0.0166171, 1.2015, -247.86586, 1.2015, -188.4146423, 1.2015, 24.8780499, 0.0462115, 0.017792, 1.2015, 196.7073212, 1.2015, -95.5487823, 1.2015, 7.5609756, 0.0462115, -0.0125887, 1.2015, 72.9268341, 1.2015, -159.0853729, 1.2015, 144.8780518, 0.0462115, 0.0582437, 1.2015, 71.5243912, 1.2015, -144.0853729, 1.2015, -69.8170776, 0.0462115, -0.0142672, 1.2015, 97.7439041, 1.2015, -10.5487804, 1.2015, -48.2317085, 0.0462115, -0.0193027, 1.2015, -123.7804871, 1.2015, -90.8536606, 1.2015, 79.0853653, 0.0462115, 0.0005035, 1.2015, -77.9268341, 1.2015, 75.6097565, 1.2015, 73.0487823, 0.0462115, 0.0387732, 1.2015, -20.5487804, 1.2015, -133.1707306, 1.2015, 141.4634247, , , , , , , , , , , , , , , , , , , , , , 
0.0467308, 0.0102388, 1.215, -191.9512177, 1.215, -131.1585388, 1.215, 35.2439041, 0.0467308, 0.0105745, 1.215, 206.2804871, 1.215, -141.0365906, 1.215, 15.9146347, 0.0467308, -0.0115816, 1.215, 24.5731716, 1.215, 14.2682934, 1.215, 126.646347, 0.0467308, 0.0464942, 1.215, 106.4634171, 1.215, -176.0365906, 1.215, -5.609756, 0.0467308, -0.0135958, 1.215, 91.7073212, 1.215, 126.9512253, 1.215, 22.439024, 0.0467308, -0.0317235, 1.215, -97.68293, 1.215, -11.7073174, 1.215, 64.6951218, 0.0467308, 0.0005035, 1.215, -24.6951218, 1.215, 101.3414688, 1.215, 31.0975609, 0.0467308, 0.0147707, 1.215, -112.86586, 1.215, -126.5243912, 1.215, 93.9024429, , , , , , , , , , , , , , , , , , , , , , 
0.04725, 0.0052033, 1.2285, -205.0609741, 1.2285, -78.1097565, 1.2285, 30.060976, 0.04725, 0.0057069, 1.2285, 190.2439117, 1.2285, -132.9268341, 1.2285, 48.1707344, 0.04725, -0.0124208, 1.2285, 12.6829271, 1.2285, 130.4878082, 1.2285, 82.1951218, 0.04725, 0.0297093, 1.2285, 141.5243988, 1.2285, -182.6219482, 1.2285, 53.3536606, 0.04725, -0.0142672, 1.2285, 121.0975647, 1.2285, 143.4146423, 1.2285, 19.4512196, 0.04725, -0.0421302, 1.2285, -80.3048782, 1.2285, 99.2682953, 1.2285, 47.6219521, 0.04725, 0.0003357, 1.2285, -69.9390259, 1.2285, 86.8292694, 1.2285, 36.7073174, 0.04725, -0.012253, 1.2285, -156.8292694, 1.2285, -132.0121918, 1.2285, 77.5609741, , , , , , , , , , , , , , , , , , , , , , 
0.0477692, -0.005539, 1.242, -247.2561035, 1.242, -33.0487823, 1.242, 45.6097565, 0.0477692, 0.0031891, 1.242, 140.9146423, 1.242, -107.0121994, 1.242, 51.341465, 0.0477692, -0.0139315, 1.242, 30, 1.242, 108.2317123, 1.242, 63.9024391, 0.0477692, 0.0125887, 1.242, 170.3048859, 1.242, -177.9878082, 1.242, 104.146347, 0.0477692, -0.0129244, 1.242, 106.5243912, 1.242, 90.7926865, 1.242, 21.0365868, 0.0477692, -0.0381018, 1.242, -73.0487823, 1.242, 117.5, 1.242, 43.3536606, 0.0477692, -0.0010071, 1.242, -104.6341476, 1.242, 83.8414688, 1.242, 42.1951218, 0.0477692, -0.0125887, 1.242, -216.5243988, 1.242, -152.6219482, 1.242, 75.6097565, , , , , , , , , , , , , , , , , , , , , , 
0.0482885, -0.0364233, 1.2555, -151.5853729, 1.2555, -1.4634147, 1.2555, 57.5, 0.0482885, -0.0001678, 1.2555, 99.5121994, 1.2555, -49.8780518, 1.2555, 60.1219521, 0.0482885, -0.0152743, 1.2555, 38.2317085, 1.2555, 15.7926836, 1.2555, 51.2804909, 0.0482885, -0.0010071, 1.2555, 212.0731812, 1.2555, -105.5487823, 1.2555, 160.7926941, 0.0482885, -0.0095674, 1.2555, 100.4878082, 1.2555, 67.68293, 1.2555, 25, 0.0482885, -0.0090639, 1.2555, -60.7317085, 1.2555, 31.5243912, 1.2555, 33.7195129, 0.0482885, -0.0028534, 1.2555, -110.6097565, 1.2555, 75.8536606, 1.2555, 58.1707344, 0.0482885, 0.0052033, 1.2555, -245.2439117, 1.2555, -163.4756165, 1.2555, 114.0853653, , , , , , , , , , , , , , , , , , , , , , 
0.0488077, -0.0609293, 1.269, -57.1951218, 1.269, -32.0121956, 1.269, 53.6585388, 0.0488077, -0.0065461, 1.269, 88.4146347, 1.269, -7.6829271, 1.269, 76.4634171, 0.0488077, -0.0146029, 1.269, 29.6951218, 1.269, -80.0609741, 1.269, 35.5487823, 0.0488077, -0.0078889, 1.269, 280.6097717, 1.269, -12.2560978, 1.269, 207.5, 0.0488077, -0.0065461, 1.269, 110.9756088, 1.269, 47.1341476, 1.269, 26.7682934, 0.0488077, 0.0280308, 1.269, -32.2560997, 1.269, -69.5121994, 1.269, 23.5365868, 0.0488077, -0.005539, 1.269, -117.68293, 1.269, 40, 1.269, 50.3658562, 0.0488077, -0.0046998, 1.269, -287.9268494, 1.269, -131.2804871, 1.269, 174.7561035, , , , , , , , , , , , , , , , , , , , , , 
0.0493269, -0.0659648, 1.2825, -40.4878044, 1.2825, -56.4024391, 1.2825, 47.8658562, 0.0493269, -0.0135958, 1.2825, 81.5853653, 1.2825, 22.3780499, 1.2825, 73.2317123, 0.0493269, -0.0119173, 1.2825, 58.4756126, 1.2825, -137.9878082, 1.2825, 35.4268303, 0.0493269, -0.0082246, 1.2825, 338.6585388, 1.2825, 80.3048782, 1.2825, 218.9634247, 0.0493269, -0.0048676, 1.2825, 146.2804871, 1.2825, 26.7073174, 1.2825, 9.0243902, 0.0493269, 0.0411231, 1.2825, -40.4268303, 1.2825, -114.2073212, 1.2825, 38.5975609, 0.0493269, -0.005539, 1.2825, -131.0975647, 1.2825, -10.5487804, 1.2825, 34.6341476, 0.0493269, -0.0619364, 1.2825, -330.8536682, 1.2825, -23.4146347, 1.2825, 219.7561035, , , , , , , , , , , , , , , , , , , , , , 
0.0498462, -0.0558938, 1.296, -86.5243912, 1.296, -54.4512215, 1.296, 26.7682934, 0.0498462, -0.01561, 1.296, 54.9390259, 1.296, 7.2560978, 1.296, 51.8902435, 0.0498462, -0.0095674, 1.296, 63.3536606, 1.296, -151.4634247, 1.296, 42.0121956, 0.0498462, -0.0062104, 1.296, 362.8658752, 1.296, 115, 1.296, 231.7073212, 0.0498462, -0.0041962, 1.296, 163.7804871, 1.296, -14.6341467, 1.296, -17.560976, 0.0498462, 0.0396124, 1.296, -45.7926826, 1.296, -138.8414612, 1.296, 40.8536606, 0.0498462, -0.0045319, 1.296, -144.2682953, 1.296, -69.3902435, 1.296, 27.7439022, 0.0498462, -0.1143053, 1.296, -369.3292847, 1.296, 114.6341476, 1.296, 198.2317047, , , , , , , , , , , , , , , , , , , , , , 
0.0503654, -0.0223239, 1.3095, -119.2073212, 1.3095, -44.6951218, 1.3095, -12.1951218, 0.0503654, -0.0159457, 1.3095, 52.5, 1.3095, -20.7926826, 1.3095, 38.4146347, 0.0503654, -0.0115816, 1.3095, 42.8658562, 1.3095, -150.9756165, 1.3095, 39.6951218, 0.0503654, -0.0085603, 1.3095, 366.0975647, 1.3095, 117.0731735, 1.3095, 254.146347, 0.0503654, -0.0038605, 1.3095, 171.0975647, 1.3095, -54.5731735, 1.3095, -31.4024391, 0.0503654, 0.0307164, 1.3095, -37.3170738, 1.3095, -141.9512177, 1.3095, 21.2195129, 0.0503654, -0.0035248, 1.3095, -148.1707306, 1.3095, -97.1341476, 1.3095, 21.2195129, 0.0503654, -0.1305867, 1.3095, -397.7438965, 1.3095, 240.1219635, 1.3095, 144.0853729, , , , , , , , , , , , , , , , , , , , , , 
0.0508846, 0.023331, 1.323, -62.7439041, 1.323, -52.0121956, 1.323, -43.841465, 0.0508846, -0.0142672, 1.323, 63.7804909, 1.323, -87.0121994, 1.323, 11.0975609, 0.0508846, -0.0152743, 1.323, 35.3048782, 1.323, -132.3780518, 1.323, 42.5, 0.0508846, -0.0179599, 1.323, 355, 1.323, 109.0853653, 1.323, 284.8780518, 0.0508846, -0.0045319, 1.323, 156.5243988, 1.323, -74.3902435, 1.323, -33.5975609, 0.0508846, 0.0092317, 1.323, -36.2804871, 1.323, -131.8902435, 1.323, 15.9756098, 0.0508846, -0.0031891, 1.323, -138.9024353, 1.323, -95.6707306, 1.323, 23.4146347, 0.0508846, -0.1144732, 1.323, -415.0609741, 1.323, 280.4268494, 1.323, 100.18293, , , , , , , , , , , , , , , , , , , , , , 
0.0514038, 0.04448, 1.3365, 14.4512196, 1.3365, -61.2195129, 1.3365, -52.9268303, 0.0514038, -0.0085603, 1.3365, 75.4268341, 1.3365, -118.4756088, 1.3365, -4.390244, 0.0514038, -0.0191348, 1.3365, 36.7073174, 1.3365, -125.2439041, 1.3365, 46.2804871, 0.0514038, -0.0323949, 1.3365, 337.4390259, 1.3365, 60.5487823, 1.3365, 325.73172, 0.0514038, -0.0041962, 1.3365, 130.6707306, 1.3365, -100.3658524, 1.3365, -42.0121956, 0.0514038, -0.0191348, 1.3365, -44.7560997, 1.3365, -111.8902435, 1.3365, 16.8902435, 0.0514038, -0.0036927, 1.3365, -135.7317047, 1.3365, -108.6585388, 1.3365, 34.5731697, 0.0514038, -0.0597543, 1.3365, -440.3658752, 1.3365, 213.3536682, 1.3365, 72.7439041, , , , , , , , , , , , , , , , , , , , , , 
0.0519231, 0.0260166, 1.35, 47.1951218, 1.35, -85.6707306, 1.35, -52.1341476, 0.0519231, -0.002182, 1.35, 71.3414688, 1.35, -94.3902435, 1.35, -8.2317076, 0.0519231, -0.0193027, 1.35, 39.5121956, 1.35, -118.5975647, 1.35, 47.3170738, 0.0519231, -0.0396124, 1.35, 326.0365906, 1.35, -11.5853662, 1.35, 371.0365906, 0.0519231, -0.0041962, 1.35, 130, 1.35, -115.8536606, 1.35, -61.8902435, 0.0519231, -0.0344091, 1.35, -44.6951218, 1.35, -106.2804871, 1.35, 24.8170738, 0.0519231, -0.0035248, 1.35, -128.5365906, 1.35, -141.9512177, 1.35, 44.5731735, 0.0519231, 0.0193027, 1.35, -492.3780518, 1.35, 60.9756126, 1.35, 56.4024391, , , , , , , , , , , , , , , , , , , , , , 
0.0524423, -0.005539, 1.3635, 72.6219559, 1.3635, -134.5121918, 1.3635, -47.4390259, 0.0524423, 0.0001678, 1.3635, 37.9878044, 1.3635, -56.0365868, 1.3635, -8.4756098, 0.0524423, -0.018967, 1.3635, 42.0731735, 1.3635, -139.8780518, 1.3635, 40.3048782, 0.0524423, -0.0394446, 1.3635, 309.0853882, 1.3635, -55.9146347, 1.3635, 383.1707458, 0.0524423, -0.0031891, 1.3635, 154.0243988, 1.3635, -118.0487823, 1.3635, -83.7195129, 0.0524423, -0.0330663, 1.3635, -32.8048782, 1.3635, -136.7073212, 1.3635, 30.9146347, 0.0524423, -0.0018463, 1.3635, -117.1951218, 1.3635, -164.2682953, 1.3635, 55.3658562, 0.0524423, 0.0787213, 1.3635, -510.0609741, 1.3635, -112.3170776, 1.3635, 34.5731697, , , , , , , , , , , , , , , , , , , , , , 
0.0529615, -0.0105745, 1.377, 73.2926865, 1.377, -149.6341553, 1.377, -58.2317085, 0.0529615, -0.0038605, 1.377, -22.0731716, 1.377, -47.0121956, 1.377, -17.3780499, 0.0529615, -0.0169528, 1.377, 56.0365868, 1.377, -158.9634247, 1.377, 33.2317085, 0.0529615, -0.0602579, 1.377, 248.5975647, 1.377, -164.6951294, 1.377, 372.7438965, 0.0529615, -0.0018463, 1.377, 169.9390259, 1.377, -112.86586, 1.377, -96.7073212, 0.0529615, -0.0303807, 1.377, -26.9512196, 1.377, -160.7317047, 1.377, 42.9878044, 0.0529615, 0.0011749, 1.377, -108.8414688, 1.377, -157.8048859, 1.377, 65.2439041, 0.0529615, 0.0119173, 1.377, -485.1829529, 1.377, -172.6219482, 1.377, 24.2682934, , , , , , , , , , , , , , , , , , , , , , 
0.0534808, 0.0104067, 1.3905, 51.6463432, 1.3905, -158.7804871, 1.3905, -83.1707306, 0.0534808, -0.0068818, 1.3905, -99.3292694, 1.3905, -36.5243912, 1.3905, -32.8658562, 0.0534808, -0.0135958, 1.3905, 71.5853653, 1.3905, -161.0975647, 1.3905, 25.3658543, 0.0534808, -0.1139696, 1.3905, 219.6951294, 1.3905, -218.5365906, 1.3905, 327.6829224, 0.0534808, -0.002182, 1.3905, 150.9146423, 1.3905, -89.7560959, 1.3905, -95.6707306, 0.0534808, -0.0317235, 1.3905, -23.9024391, 1.3905, -153.9024353, 1.3905, 56.0365868, 0.0534808, 0.0038605, 1.3905, -101.1585388, 1.3905, -131.4634247, 1.3905, 71.8292694, 0.0534808, -0.1537499, 1.3905, -407.4390259, 1.3905, -164.2073212, 1.3905, 34.6951218, , , , , , , , , , , , , , , , , , , , , , 
0.054, 0.0317235, 1.404, 51.8292694, 1.404, -89.2682953, 1.404, -77.6219559, 0.054, -0.0062104, 1.404, -172.8048859, 1.404, -27.6829281, 1.404, -40.1829262, 0.054, -0.0125887, 1.404, 80.1219559, 1.404, -124.9390259, 1.404, 23.2926826, 0.054, -0.1606317, 1.404, 247.6829376, 1.404, -151.5853729, 1.404, 269.3292847, 0.054, -0.0031891, 1.404, 117.5, 1.404, -62.0731735, 1.404, -84.3292694, 0.054, -0.0399481, 1.404, -26.7682934, 1.404, -118.8414688, 1.404, 66.3414612, 0.054, 0.0025177, 1.404, -89.6341476, 1.404, -103.2317123, 1.404, 76.4024429, 0.054, -0.2197147, 1.404, -368.5975647, 1.404, -78.9634171, 1.404, 65.6097565, , , , , , , , , , , , , , , , , , , , , , 
0.0545192, 0.0313878, 1.4175, 53.6585388, 1.4175, -1.3414634, 1.4175, -54.4512215, 0.0545192, -0.0038605, 1.4175, -215.7926941, 1.4175, -50.6097565, 1.4175, -42.0731735, 0.0545192, -0.0142672, 1.4175, 80, 1.4175, -80.7926865, 1.4175, 29.6341476, 0.0545192, -0.1507286, 1.4175, 243.9024506, 1.4175, -13.3536587, 1.4175, 200.7926941, 0.0545192, -0.0048676, 1.4175, 105.3048782, 1.4175, -44.0243912, 1.4175, -77.3780518, 0.0545192, -0.0587472, 1.4175, -33.9634171, 1.4175, -73.7804871, 1.4175, 73.4756088, 0.0545192, 0.0046998, 1.4175, -79.5731735, 1.4175, -79.0243912, 1.4175, 81.8292694, 0.0545192, -0.1022202, 1.4175, -294.0853577, 1.4175, 33.2926826, 1.4175, 74.7560959, , , , , , , , , , , , , , , , , , , , , , 
0.0550385, 0.0082246, 1.431, 27.8658543, 1.431, 79.8780518, 1.431, -33.0487823, 0.0550385, -0.0018463, 1.431, -196.0365906, 1.431, -108.4146347, 1.431, -24.5731716, 0.0550385, -0.0159457, 1.431, 76.7073212, 1.431, -48.2926826, 1.431, 42.8048782, 0.0550385, -0.0820783, 1.431, 208.4146423, 1.431, 23.9634151, 1.431, 151.3414612, 0.0550385, -0.0062104, 1.431, 95.4268341, 1.431, 3.5365853, 1.431, -67.3170776, 0.0550385, -0.076875, 1.431, -44.2682953, 1.431, -50.6707344, 1.431, 78.9634171, 0.0550385, 0.0159457, 1.431, -76.0365906, 1.431, -66.2804871, 1.431, 84.3902435, 0.0550385, 0.0835889, 1.431, -227.4390259, 1.431, -31.6463413, 1.431, 79.6341476, , , , , , , , , , , , , , , , , , , , , , 
0.0555577, -0.0354162, 1.4445, 46.4024391, 1.4445, 74.3902435, 1.4445, -34.9390259, 0.0555577, -0.0025177, 1.4445, -67.1951218, 1.4445, -145.4268341, 1.4445, 36.341465, 0.0555577, -0.0166171, 1.4445, 76.8292694, 1.4445, -40.4878044, 1.4445, 56.8292694, 0.0555577, -0.0125887, 1.4445, 154.4512177, 1.4445, -2.1341465, 1.4445, 119.146347, 0.0555577, -0.0082246, 1.4445, 89.146347, 1.4445, 39.6951218, 1.4445, -63.1097565, 0.0555577, -0.0770428, 1.4445, -56.7073174, 1.4445, -50.4878044, 1.4445, 81.7073212, 0.0555577, 0.0270237, 1.4445, -64.7560959, 1.4445, -30.7926846, 1.4445, 85.8536606, 0.0555577, 0.1686885, 1.4445, -174.3902435, 1.4445, -33.4756088, 1.4445, 58.1097565, , , , , , , , , , , , , , , , , , , , , , 
0.0560769, -0.0881209, 1.458, 57.4390259, 1.458, 6.4024391, 1.458, -34.4512215, 0.0560769, -0.0028534, 1.458, 65.6707306, 1.458, -34.8780479, 1.458, 82.8658524, 0.0560769, -0.0162814, 1.458, 79.5121994, 1.458, -49.0243912, 1.458, 67.1341476, 0.0560769, -0.0072175, 1.458, 66.3414612, 1.458, -35.6097565, 1.458, 84.5731735, 0.0560769, -0.0082246, 1.458, 86.0975647, 1.458, 54.6951218, 1.458, -58.2926826, 0.0560769, -0.0659648, 1.458, -66.4634171, 1.458, -55.4268303, 1.458, 82.3780518, 0.0560769, 0.0320592, 1.458, -50.3048782, 1.458, 1.2195122, 1.458, 80, 0.0560769, 0.0891279, 1.458, -118.2317123, 1.458, -41.8902435, 1.458, 12.5, , , , , , , , , , , , , , , , , , , , , , 
0.0565962, -0.1273976, 1.4715, -8.841464, 1.4715, -37.4390259, 1.4715, -17.0731716, 0.0565962, -0.0005035, 1.4715, 54.0853653, 1.4715, -22.8048782, 1.4715, 73.9024429, 0.0565962, -0.0139315, 1.4715, 89.2073212, 1.4715, -52.8048782, 1.4715, 66.4024429, 0.0565962, -0.0344091, 1.4715, -28.780489, 1.4715, -68.4146347, 1.4715, 16.4634151, 0.0565962, -0.0078889, 1.4715, 76.646347, 1.4715, 63.6585388, 1.4715, -53.2926826, 0.0565962, -0.0486763, 1.4715, -68.1097565, 1.4715, -58.3536606, 1.4715, 85.1219559, 0.0565962, 0.033402, 1.4715, -34.9390259, 1.4715, 11.8292685, 1.4715, 75.1219559, 0.0565962, -0.0142672, 1.4715, -17.7439022, 1.4715, -101.0975647, 1.4715, -27.0731716, , , , , , , , , , , , , , , , , , , , , , 
0.0571154, -0.1297475, 1.485, -91.8292694, 1.485, -64.6951218, 1.485, 0.4878049, 0.0571154, 0.0015106, 1.485, 66.3414612, 1.485, 26.5243912, 1.485, 30.2439022, 0.0571154, -0.0139315, 1.485, 99.6341476, 1.485, -66.5853653, 1.485, 65.3048782, 0.0571154, -0.0276951, 1.485, -146.8292694, 1.485, -86.1585388, 1.485, -128.7195129, 0.0571154, -0.0092317, 1.485, 54.3902435, 1.485, 64.2682953, 1.485, -51.1585388, 0.0571154, -0.0381018, 1.485, -69.9390259, 1.485, -67.6219559, 1.485, 92.0121994, 0.0571154, 0.0360876, 1.485, -9.6341467, 1.485, -0.3658537, 1.485, 71.3414688, 0.0571154, -0.0451514, 1.485, 157.2561035, 1.485, -90.18293, 1.485, -34.7560997, , , , , , , , , , , , , , , , , , , , , , 
0.0576346, -0.1144732, 1.4985, -103.4146347, 1.4985, -94.2682953, 1.4985, 14.5121956, 0.0576346, 0.0028534, 1.4985, 46.0365868, 1.4985, 50.1219521, 1.4985, -9.8170738, 0.0576346, -0.0162814, 1.4985, 107.3780518, 1.4985, -65.0609741, 1.4985, 67.2560959, 0.0576346, 0.0169528, 1.4985, -217.9268341, 1.4985, -105.3048782, 1.4985, -195.4878082, 0.0576346, -0.0102388, 1.4985, 28.4146347, 1.4985, 52.7439041, 1.4985, -57.0121956, 0.0576346, -0.0364233, 1.4985, -75.6097565, 1.4985, -63.5975609, 1.4985, 96.7682953, 0.0576346, 0.0352483, 1.4985, 20.2439022, 1.4985, -16.9512196, 1.4985, 64.5731735, 0.0576346, -0.0327306, 1.4985, 271.3414612, 1.4985, -141.0365906, 1.4985, -64.0243912, , , , , , , , , , , , , , , , , , , , , , 
0.0581538, -0.0975204, 1.512, -35.3048782, 1.512, -61.1585388, 1.512, 48.5975609, 0.0581538, 0.0052033, 1.512, 3.8414636, 1.512, -118.2317123, 1.512, -108.1707306, 0.0581538, -0.0159457, 1.512, 107.7439041, 1.512, -49.4512215, 1.512, 70.4878082, 0.0581538, 0.0466621, 1.512, -81.8902435, 1.512, -46.7073174, 1.512, -40.8536606, 0.0581538, -0.0115816, 1.512, 2.5609756, 1.512, 29.7560978, 1.512, -69.3902435, 0.0581538, -0.0293736, 1.512, -80, 1.512, -59.5121956, 1.512, 100.9146347, 0.0581538, 0.0273594, 1.512, 56.8292694, 1.512, -20.7317085, 1.512, 53.5975609, 0.0581538, 0.0157778, 1.512, 192.0731812, 1.512, -188.4756165, 1.512, -93.1707306, , , , , , , , , , , , , , , , , , , , , , 
0.0586731, -0.0814069, 1.5255, 38.9634171, 1.5255, 140.1829376, 1.5255, 59.6341476, 0.0586731, 0.0078889, 1.5255, 62.7439041, 1.5255, 21.7073174, 1.5255, -81.8902435, 0.0586731, -0.0119173, 1.5255, 103.6585388, 1.5255, -49.5731735, 1.5255, 76.4024429, 0.0586731, 0.0276951, 1.5255, -54.0243912, 1.5255, -213.7804871, 1.5255, 19.3292694, 0.0586731, -0.0139315, 1.5255, -21.7073174, 1.5255, -0.4268293, 1.5255, -81.3414688, 0.0586731, -0.0082246, 1.5255, -82.7439041, 1.5255, -58.1097565, 1.5255, 102.68293, 0.0586731, 0.0112459, 1.5255, 73.8414688, 1.5255, -27.5, 1.5255, 35.6097565, 0.0586731, 0.0802319, 1.5255, 82.5, 1.5255, -225.1219635, 1.5255, -63.7195129, , , , , , , , , , , , , , , , , , , , , , 
0.0591923, -0.070161, 1.539, 15.3048782, 1.539, 280.0609741, 1.539, 14.6341467, 0.0591923, 0.0082246, 1.539, -43.7804871, 1.539, 176.7682953, 1.539, 34.5731697, 0.0591923, -0.008896, 1.539, 97.9268341, 1.539, -49.2682953, 1.539, 97.3170776, 0.0591923, -0.0092317, 1.539, -122.0121994, 1.539, -274.3902588, 1.539, 0.9756098, 0.0591923, -0.0162814, 1.539, -42.4390259, 1.539, -22.0121956, 1.539, -82.1951218, 0.0591923, 0.0129244, 1.539, -102.0731735, 1.539, -61.2195129, 1.539, 104.9390259, 0.0591923, -0.0099031, 1.539, 67.1341476, 1.539, -48.3536606, 1.539, 17.1341476, 0.0591923, 0.0797284, 1.539, -85.18293, 1.539, -117.7439041, 1.539, -16.4634151, , , , , , , , , , , , , , , , , , , , , , 
0.0597115, -0.0802319, 1.5525, -46.5853653, 1.5525, 183.1097565, 1.5525, -38.7195129, 0.0597115, 0.005539, 1.5525, -50.4878044, 1.5525, 148.8414612, 1.5525, 83.3536606, 0.0597115, -0.0085603, 1.5525, 89.2682953, 1.5525, -15.8536587, 1.5525, 122.6219559, 0.0597115, -0.0318914, 1.5525, -161.7682953, 1.5525, 1.1585366, 1.5525, 2.8658538, 0.0597115, -0.0179599, 1.5525, -58.1707344, 1.5525, -48.7195129, 1.5525, -67.5609741, 0.0597115, 0.0124208, 1.5525, -116.5243912, 1.5525, -74.5731735, 1.5525, 102.2561035, 0.0597115, -0.0310521, 1.5525, 63.3536606, 1.5525, -74.2073212, 1.5525, 0.7317073, 0.0597115, 0.0077211, 1.5525, 151.5853729, 1.5525, 215.9756165, 1.5525, -205.8536682, , , , , , , , , , , , , , , , , , , , , , 
0.0602308, -0.1156481, 1.566, -26.9512196, 1.566, 185.9756165, 1.566, -70.0609741, 0.0602308, 0.0038605, 1.566, -39.0243912, 1.566, 133.1097565, 1.566, 59.6341476, 0.0602308, -0.0112459, 1.566, 79.3292694, 1.566, -73.1707306, 1.566, 126.7682953, 0.0602308, -0.0251774, 1.566, -264.6951294, 1.566, -0.1219512, 1.566, -234.512207, 0.0602308, -0.0182956, 1.566, -63.6585388, 1.566, -63.4756126, 1.566, -55.3658562, 0.0602308, -0.0018463, 1.566, -112.1341476, 1.566, -73.5975647, 1.566, 86.2804871, 0.0602308, -0.0461585, 1.566, 50.7926826, 1.566, -98.7195129, 1.566, -17.0731716, 0.0602308, -0.0486763, 1.566, 327.5609741, 1.566, 61.5853691, 1.566, -127.68293, , , , , , , , , , , , , , , , , , , , , , 
0.06075, -0.1273976, 1.5795, -30.4268303, 1.5795, 115.9756088, 1.5795, -62.0121956, 0.06075, 0.0036927, 1.5795, -61.9512215, 1.5795, 33.7804871, 1.5795, 14.9390249, 0.06075, -0.0142672, 1.5795, 81.0365906, 1.5795, -90.18293, 1.5795, 97.3170776, 0.06075, 0.0085603, 1.5795, -77.1951218, 1.5795, 192.86586, 1.5795, -96.8902435, 0.06075, -0.0186313, 1.5795, -63.9024391, 1.5795, -98.4756088, 1.5795, -29.2073174, 0.06075, -0.0179599, 1.5795, -87.8048782, 1.5795, -65.2439041, 1.5795, 71.8902435, 0.06075, -0.057908, 1.5795, 40.1829262, 1.5795, -115.4878082, 1.5795, -36.4634171, 0.06075, -0.0229953, 1.5795, 125.2439041, 1.5795, -44.5731735, 1.5795, -38.6585388, , , , , , , , , , , , , , , , , , , , , , 
0.0612692, -0.0793927, 1.593, 14.6951227, 1.593, 17.6219521, 1.593, -5.4878049, 0.0612692, 0.0052033, 1.593, -52.9878044, 1.593, -12.6829271, 1.593, -11.5243902, 0.0612692, -0.01561, 1.593, 79.0243912, 1.593, -67.1341476, 1.593, 61.4634171, 0.0612692, 0.0565652, 1.593, 19.2073174, 1.593, 159.2682953, 1.593, 7.3170733, 0.0612692, -0.0198062, 1.593, -62.1951218, 1.593, -111.9512253, 1.593, -6.0365853, 0.0612692, -0.0303807, 1.593, -69.5731735, 1.593, 0.1219512, 1.593, 60.7317085, 0.0612692, -0.0636149, 1.593, 40.2439041, 1.593, -111.7073212, 1.593, -53.841465, 0.0612692, 0.0767071, 1.593, -11.280488, 1.593, 69.5731735, 1.593, -15.7317076, , , , , , , , , , , , , , , , , , , , , , 
0.0617885, 0.0006714, 1.6065, 132.5, 1.6065, 45.6707344, 1.6065, 25.3048782, 0.0617885, 0.0085603, 1.6065, -64.6951218, 1.6065, 5.3658538, 1.6065, -33.2317085, 0.0617885, -0.0162814, 1.6065, 76.0365906, 1.6065, -52.1341476, 1.6065, 42.6829262, 0.0617885, 0.0797284, 1.6065, -32.2560997, 1.6065, 92.0121994, 1.6065, -1.6463414, 0.0617885, -0.0203098, 1.6065, -65.7926865, 1.6065, -105.6097565, 1.6065, 18.1097565, 0.0617885, -0.0364233, 1.6065, -70.9146347, 1.6065, 54.6341476, 1.6065, 44.4512215, 0.0617885, -0.0599222, 1.6065, 42.3780479, 1.6065, -84.3902435, 1.6065, -68.4756088, 0.0617885, 0.1529107, 1.6065, 32.5, 1.6065, 130.4878082, 1.6065, -56.9512215, , , , , , , , , , , , , , , , , , , , , , 
0.0623077, 0.0636149, 1.62, 155.5487823, 1.62, 22.2560978, 1.62, 16.1585369, 0.0623077, 0.0119173, 1.62, -85.3048782, 1.62, 21.7073174, 1.62, -34.7560997, 0.0623077, -0.0172885, 1.62, 51.4634171, 1.62, 15.3048782, 1.62, 38.5975609, 0.0623077, 0.0542153, 1.62, -64.5731735, 1.62, 5, 1.62, -46.8902435, 0.0623077, -0.0226596, 1.62, -76.5853653, 1.62, -87.9878082, 1.62, 44.4512215, 0.0623077, -0.0354162, 1.62, -71.8292694, 1.62, 75.3658524, 1.62, 32.2560997, 0.0623077, -0.0520333, 1.62, 44.3902435, 1.62, -38.2317085, 1.62, -82.0121994, 0.0623077, 0.1482109, 1.62, 65.9146347, 1.62, -23.3536587, 1.62, -59.5121956, , , , , , , , , , , , , , , , , , , , , , 
0.0628269, 0.1121233, 1.6335, 134.8170776, 1.6335, 4.8170733, 1.6335, -27.8658543, 0.0628269, 0.0129244, 1.6335, -95.1219559, 1.6335, 4.2682929, 1.6335, -31.5853672, 0.0628269, -0.0176242, 1.6335, -2.9878049, 1.6335, 97.1951218, 1.6335, 37.1951218, 0.0628269, 0.0142672, 1.6335, -69.0243912, 1.6335, -22.3780499, 1.6335, -49.0243912, 0.0628269, -0.0243381, 1.6335, -87.2560959, 1.6335, -58.841465, 1.6335, 66.5243912, 0.0628269, -0.0313878, 1.6335, -59.9390259, 1.6335, 123.9024429, 1.6335, 4.7560978, 0.0628269, -0.04448, 1.6335, 50.5487823, 1.6335, 18.4146347, 1.6335, -85.2439041, 0.0628269, 0.0850996, 1.6335, 63.1707344, 1.6335, -61.8292694, 1.6335, -58.6585388, , , , , , , , , , , , , , , , , , , , , , 
0.0633462, 0.1609674, 1.647, 112.6219559, 1.647, -0.3048781, 1.647, -69.2682953, 0.0633462, 0.0129244, 1.647, -95.4878082, 1.647, -15.5487804, 1.647, -19.939024, 0.0633462, -0.0159457, 1.647, -56.8292694, 1.647, 164.146347, 1.647, 36.7682953, 0.0633462, -0.0008392, 1.647, -61.2195129, 1.647, -21.2195129, 1.647, -18.5365849, 0.0633462, -0.0240024, 1.647, -88.2926865, 1.647, -15.6097565, 1.647, 85, 0.0633462, -0.0293736, 1.647, -35.4878044, 1.647, 176.7073212, 1.647, -12.5, 0.0633462, -0.0391089, 1.647, 50.3048782, 1.647, 44.7560997, 1.647, -83.9024429, 0.0633462, -0.0062104, 1.647, 45.0609779, 1.647, -9.8780489, 1.647, -52.4390259, , , , , , , , , , , , , , , , , , , , , , 
0.0638654, 0.2049439, 1.6605, 100.7317123, 1.6605, -6.890244, 1.6605, -75.0609741, 0.0638654, 0.0132601, 1.6605, -99.2073212, 1.6605, -2.804878, 1.6605, -9.0853662, 0.0638654, -0.0112459, 1.6605, -95.7317123, 1.6605, 236.4634247, 1.6605, 48.3536606, 0.0638654, 0.0276951, 1.6605, -14.8780489, 1.6605, 31.9512196, 1.6605, 3.9634147, 0.0638654, -0.0238346, 1.6605, -88.5365906, 1.6605, 19.4512196, 1.6605, 105.5487823, 0.0638654, -0.0263523, 1.6605, -28.1707325, 1.6605, 211.4024506, 1.6605, -25, 0.0638654, -0.0325628, 1.6605, 40.3658562, 1.6605, 92.1341476, 1.6605, -85.3048782, 0.0638654, -0.047837, 1.6605, 15.1829271, 1.6605, 17.439024, 1.6605, -32.1951218, , , , , , , , , , , , , , , , , , , , , , 
0.0643846, 0.2291142, 1.674, 57.9268303, 1.674, -27.1341476, 1.674, -71.6463394, 0.0643846, 0.0146029, 1.674, -98.6585388, 1.674, 4.5731707, 1.674, 4.6341462, 0.0643846, -0.0052033, 1.674, -128.5365906, 1.674, 258.7804871, 1.674, 54.3902435, 0.0643846, 0.0881209, 1.674, 2.5, 1.674, 51.6463432, 1.674, -11.7682934, 0.0643846, -0.024506, 1.674, -99.6951218, 1.674, 50.4268303, 1.674, 136.7682953, 0.0643846, -0.0213169, 1.674, -28.4146347, 1.674, 234.3292694, 1.674, -49.8780518, 0.0643846, -0.0213169, 1.674, 32.4390259, 1.674, 128.9634247, 1.674, -97.68293, 0.0643846, 0.0008392, 1.674, 23.5365868, 1.674, 27.3780499, 1.674, -18.1097565, , , , , , , , , , , , , , , , , , , , , , 
0.0649038, 0.2292821, 1.6875, 42.9268303, 1.6875, -25.1829281, 1.6875, -57.1951218, 0.0649038, 0.01561, 1.6875, -69.6951218, 1.6875, 7.0121951, 1.6875, 9.5731707, 0.0649038, -0.0008392, 1.6875, -164.6341553, 1.6875, 238.9634247, 1.6875, 30.6097565, 0.0649038, 0.1200122, 1.6875, -19.0243912, 1.6875, 37.1951218, 1.6875, -45.2439041, 0.0649038, -0.0256809, 1.6875, -123.2926865, 1.6875, 83.0487823, 1.6875, 170.1829376, 0.0649038, -0.0263523, 1.6875, -5.2439027, 1.6875, 229.9390259, 1.6875, -85.4268341, 0.0649038, -0.0030213, 1.6875, 28.2926826, 1.6875, 148.7804871, 1.6875, -117.9268341, 0.0649038, 0.0548867, 1.6875, 31.5853672, 1.6875, 35.4878044, 1.6875, -20.1219521, , , , , , , , , , , , , , , , , , , , , , 
0.0654231, 0.2113222, 1.701, 42.1341476, 1.701, 8.9634151, 1.701, -26.8292694, 0.0654231, 0.0152743, 1.701, -50.8536606, 1.701, 9.6951218, 1.701, -0.1829268, 0.0654231, -0.0028534, 1.701, -196.4024506, 1.701, 183.1707306, 1.701, -26.3414631, 0.0654231, 0.0911421, 1.701, -17.8048782, 1.701, 55.2439041, 1.701, -34.5731697, 0.0654231, -0.026688, 1.701, -150.1829376, 1.701, 98.6585388, 1.701, 193.4756165, 0.0654231, -0.0417945, 1.701, 48.9634171, 1.701, 186.0975647, 1.701, -124.6951218, 0.0654231, 0.0218204, 1.701, 31.280489, 1.701, 153.5365906, 1.701, -132.9878082, 0.0654231, 0.0649577, 1.701, 34.4512215, 1.701, 54.4512215, 1.701, -30.4878063, , , , , , , , , , , , , , , , , , , , , , 
0.0659423, 0.1942016, 1.7145, 42.0731735, 1.7145, 78.4756088, 1.7145, -1.8902439, 0.0659423, 0.0139315, 1.7145, -38.4756088, 1.7145, 31.341465, 1.7145, -6.8292685, 0.0659423, -0.005539, 1.7145, -199.3902435, 1.7145, 133.6585388, 1.7145, -64.0853653, 0.0659423, 0.0505226, 1.7145, -14.5731707, 1.7145, 52.7439041, 1.7145, -15.3658543, 0.0659423, -0.0283665, 1.7145, -165.0609741, 1.7145, 111.8292694, 1.7145, 197.7439117, 0.0659423, -0.0513619, 1.7145, 107.8048782, 1.7145, 100.3658524, 1.7145, -151.4024353, 0.0659423, 0.0464942, 1.7145, 35.2439041, 1.7145, 155.1829376, 1.7145, -137.8048859, 0.0659423, 0.0481727, 1.7145, 24.5121956, 1.7145, 62.9878082, 1.7145, -35.4878044, , , , , , , , , , , , , , , , , , , , , , 
0.0664615, 0.1722133, 1.728, 52.3170738, 1.728, 132.1341553, 1.728, 11.7682934, 0.0664615, 0.0112459, 1.728, -47.8658562, 1.728, 106.3414688, 1.728, -3.2317073, 0.0664615, -0.0078889, 1.728, -171.1585388, 1.728, 15.8536587, 1.728, -127.68293, 0.0664615, 0.0374304, 1.728, -12.3170738, 1.728, 54.2073174, 1.728, -10.8536587, 0.0664615, -0.0297093, 1.728, -166.3414612, 1.728, 120.6707382, 1.728, 192.6829376, 0.0664615, -0.0532082, 1.728, 139.6341553, 1.728, 5.9146342, 1.728, -154.2682953, 0.0664615, 0.0602579, 1.728, 31.5243912, 1.728, 176.2804871, 1.728, -130.2439117, 0.0664615, 0.0219883, 1.728, 18.2926826, 1.728, 56.1585388, 1.728, -35.0609779, , , , , , , , , , , , , , , , , , , , , , 
0.0669808, 0.1371328, 1.7415, 61.8292694, 1.7415, 165.1219482, 1.7415, 19.2073174, 0.0669808, 0.0105745, 1.7415, -72.1341476, 1.7415, 149.6341553, 1.7415, -3.1097562, 0.0669808, -0.0115816, 1.7415, -134.0243988, 1.7415, -89.6341476, 1.7415, -152.3170776, 0.0669808, 0.0364233, 1.7415, -6.9512196, 1.7415, 59.3292694, 1.7415, -7.9268293, 0.0669808, -0.0310521, 1.7415, -150.7926788, 1.7415, 139.2682953, 1.7415, 173.7195129, 0.0669808, -0.0518654, 1.7415, 147.3780518, 1.7415, -63.4756126, 1.7415, -154.3292694, 0.0669808, 0.0642863, 1.7415, 19.6951218, 1.7415, 212.86586, 1.7415, -112.3170776, 0.0669808, 0.0058747, 1.7415, 13.9634151, 1.7415, 60.5487823, 1.7415, -37.8048782, , , , , , , , , , , , , , , , , , , , , , 
0.0675, 0.0985275, 1.755, 68.4756088, 1.755, 182.4390259, 1.755, 12.4390249, 0.0675, 0.0112459, 1.755, -84.6951218, 1.755, 158.2926941, 1.755, -6.1585369, 0.0675, -0.0142672, 1.755, -130.6707306, 1.755, -177.3780518, 1.755, -154.7561035, 0.0675, 0.0307164, 1.755, 1.3414634, 1.755, 70.3048782, 1.755, -5.7926831, 0.0675, -0.0337377, 1.755, -111.0975647, 1.755, 156.1585388, 1.755, 158.2926941, 0.0675, -0.0491798, 1.755, 156.8902435, 1.755, -114.0243912, 1.755, -166.5853729, 0.0675, 0.0629435, 1.755, 5.609756, 1.755, 243.4146423, 1.755, -94.5731735, 0.0675, -0.0065461, 1.755, 3.4756098, 1.755, 69.6951218, 1.755, -35.1219521, , , , , , , , , , , , , , , , , , , , , , 
0.0680192, 0.0360876, 1.7685, 78.5975647, 1.7685, 171.9512177, 1.7685, 0.1829268, 0.0680192, 0.0112459, 1.7685, -83.6585388, 1.7685, 150.1219482, 1.7685, -10.4268293, 0.0680192, -0.0147707, 1.7685, -153.1097565, 1.7685, -214.2682953, 1.7685, -154.3292694, 0.0680192, 0.0226596, 1.7685, 15.5487804, 1.7685, 80.4268341, 1.7685, -2.804878, 0.0680192, -0.0357519, 1.7685, -76.7682953, 1.7685, 159.3902435, 1.7685, 156.5243988, 0.0680192, -0.03122, 1.7685, 163.4146423, 1.7685, -127.1341476, 1.7685, -176.7073212, 0.0680192, 0.0589151, 1.7685, -0.8536586, 1.7685, 260.73172, 1.7685, -79.6951218, 0.0680192, -0.0414588, 1.7685, -7.6219516, 1.7685, 82.5609741, 1.7685, -24.6951218, , , , , , , , , , , , , , , , , , , , , , 
0.0685385, -0.0538796, 1.782, 77.1951218, 1.782, 131.7682953, 1.782, -4.0243902, 0.0685385, 0.0105745, 1.782, -76.7682953, 1.782, 139.4512177, 1.782, -17.0731716, 0.0685385, -0.0162814, 1.782, -178.5365906, 1.782, -202.6219635, 1.782, -159.8780518, 0.0685385, 0.0139315, 1.782, 26.2195129, 1.782, 101.5243912, 1.782, -2.3170731, 0.0685385, -0.0357519, 1.782, -60.5487823, 1.782, 142.7439117, 1.782, 164.5731812, 0.0685385, 0.0065461, 1.782, 174.2073212, 1.782, -135.1829224, 1.782, -199.2073212, 0.0685385, 0.0538796, 1.782, 5.670732, 1.782, 235.6707306, 1.782, -69.9390259, 0.0685385, -0.0928206, 1.782, -11.8292685, 1.782, 98.7195129, 1.782, -20.6707325, , , , , , , , , , , , , , , , , , , , , , 
0.0690577, -0.1161517, 1.7955, 70.7317123, 1.7955, 96.9512253, 1.7955, -6.1585369, 0.0690577, 0.0072175, 1.7955, -66.3414612, 1.7955, 120.6097565, 1.7955, -20.9756107, 0.0690577, -0.0172885, 1.7955, -209.3292694, 1.7955, -167.7439117, 1.7955, -163.7195129, 0.0690577, 0.0115816, 1.7955, 25.060976, 1.7955, 120, 1.7955, -4.2682929, 0.0690577, -0.0387732, 1.7955, -40.3658562, 1.7955, 107.7439041, 1.7955, 173.4146423, 0.0690577, 0.0169528, 1.7955, 178.6585388, 1.7955, -107.8658524, 1.7955, -227.8048859, 0.0690577, 0.0488441, 1.7955, -4.5121951, 1.7955, 182.0731812, 1.7955, -68.7804871, 0.0690577, -0.096849, 1.7955, -6.6463418, 1.7955, 116.9512253, 1.7955, -28.4756107, , , , , , , , , , , , , , , , , , , , , , 
0.0695769, -0.1327687, 1.809, 72.8658524, 1.809, 91.8902435, 1.809, -8.2317076, 0.0695769, 0.0065461, 1.809, -64.3902435, 1.809, 109.146347, 1.809, -20.4268303, 0.0695769, -0.0149386, 1.809, -253.5365906, 1.809, -111.4634171, 1.809, -161.2195129, 0.0695769, 0.0105745, 1.809, 18.5975609, 1.809, 119.2682953, 1.809, -7.0731707, 0.0695769, -0.043473, 1.809, -6.3414636, 1.809, 69.8780518, 1.809, 145.4268341, 0.0695769, -0.003357, 1.809, 179.5121918, 1.809, -26.5243912, 1.809, -255.2439117, 0.0695769, 0.0451514, 1.809, -25.5487804, 1.809, 121.4634171, 1.809, -69.5121994, 0.0695769, -0.0392767, 1.809, -3.1707318, 1.809, 116.3414688, 1.809, -32.7439041, , , , , , , , , , , , , , , , , , , , , , 
0.0700962, -0.1394827, 1.8225, 76.0365906, 1.8225, 96.4634171, 1.8225, -8.9634151, 0.0700962, 0.008896, 1.8225, -65.4878082, 1.8225, 96.2195129, 1.8225, -14.6341467, 0.0700962, -0.010071, 1.8225, -294.8170776, 1.8225, 2.5609756, 1.8225, -153.7804871, 0.0700962, 0.0085603, 1.8225, 15.2439032, 1.8225, 105.9756088, 1.8225, -10.3658543, 0.0700962, -0.0458228, 1.8225, 13.1707315, 1.8225, 28.9634151, 1.8225, 84.2073212, 0.0700962, -0.0115816, 1.8225, 179.8170776, 1.8225, 107.7439041, 1.8225, -260.5487976, 0.0700962, 0.0411231, 1.8225, -42.8048782, 1.8225, 52.2560997, 1.8225, -64.8170776, 0.0700962, 0.027863, 1.8225, -1.2195122, 1.8225, 103.3536606, 1.8225, -29.4512196, , , , , , , , , , , , , , , , , , , , , , 
0.0706154, -0.1754025, 1.836, 62.0121956, 1.836, 101.2195129, 1.836, -0.9756098, 0.0706154, 0.010071, 1.836, -61.4634171, 1.836, 104.6951218, 1.836, -11.9512196, 0.0706154, -0.0068818, 1.836, -310.1829224, 1.836, 149.2073212, 1.836, -138.4756165, 0.0706154, 0.0139315, 1.836, 13.5975609, 1.836, 88.7195129, 1.836, -19.0243912, 0.0706154, -0.0438087, 1.836, 19.1463413, 1.836, -11.280488, 1.836, 38.1097565, 0.0706154, -0.0097353, 1.836, 171.2804871, 1.836, 211.4024506, 1.836, -235.1219635, 0.0706154, 0.0384375, 1.836, -51.9512215, 1.836, -7.3170733, 1.836, -57.4390259, 0.0706154, 0.0750286, 1.836, 1.4634147, 1.836, 95.9756088, 1.836, -25.6707325, , , , , , , , , , , , , , , , , , , , , , 
0.0711346, -0.2519417, 1.8495, 49.5731735, 1.8495, 116.8902435, 1.8495, 10.3658543, 0.0711346, 0.0117494, 1.8495, -52.1341476, 1.8495, 120.8536606, 1.8495, -18.5365849, 0.0711346, -0.0065461, 1.8495, -284.8780518, 1.8495, 253.4146423, 1.8495, -136.0365906, 0.0711346, 0.0246738, 1.8495, 11.5853662, 1.8495, 77.8048782, 1.8495, -29.3292694, 0.0711346, -0.0424659, 1.8495, 22.8048782, 1.8495, -63.6585388, 1.8495, 23.0487804, 0.0711346, -0.0105745, 1.8495, 171.3414612, 1.8495, 252.86586, 1.8495, -186.2804871, 0.0711346, 0.0370947, 1.8495, -56.7682953, 1.8495, -33.5975609, 1.8495, -49.5731735, 0.0711346, 0.0525368, 1.8495, 10.1219511, 1.8495, 87.5, 1.8495, -17.7439022, , , , , , , , , , , , , , , , , , , , , , 
0.0716538, -0.3452659, 1.863, 48.2926826, 1.863, 134.6951294, 1.863, 24.9390259, 0.0716538, 0.0159457, 1.863, -45.5487823, 1.863, 136.8292694, 1.863, -25.9756107, 0.0716538, -0.0078889, 1.863, -223.3536682, 1.863, 269.6951294, 1.863, -145.4878082, 0.0716538, 0.0250095, 1.863, 5.609756, 1.863, 67.8048782, 1.863, -35.9146347, 0.0716538, -0.0406195, 1.863, 10.6707315, 1.863, -55.4878044, 1.863, 35.5487823, 0.0716538, -0.0129244, 1.863, 187.5609741, 1.863, 203.0487823, 1.863, -134.2073212, 0.0716538, 0.0365911, 1.863, -57.4390259, 1.863, -30.8536587, 1.863, -46.0365868, 0.0716538, -0.0008392, 1.863, 19.0243912, 1.863, 78.5975647, 1.863, -13.5365858, , , , , , , , , , , , , , , , , , , , , , 
0.0721731, -0.3983062, 1.8765, 52.0121956, 1.8765, 148.4756165, 1.8765, 35.7926826, 0.0721731, 0.0196384, 1.8765, -46.0365868, 1.8765, 144.2682953, 1.8765, -28.5365868, 0.0721731, -0.0102388, 1.8765, -134.2073212, 1.8765, 98.7804871, 1.8765, -150.0609741, 0.0721731, 0.0146029, 1.8765, -3.7195122, 1.8765, 52.6219521, 1.8765, -39.2682953, 0.0721731, -0.0377661, 1.8765, -8.0487804, 1.8765, 5.9146342, 1.8765, 69.3292694, 0.0721731, -0.018967, 1.8765, 167.3780518, 1.8765, 113.1097565, 1.8765, -98.1097565, 0.0721731, 0.0345769, 1.8765, -56.341465, 1.8765, 12.1341467, 1.8765, -43.841465, 0.0721731, -0.0028534, 1.8765, 25.1829281, 1.8765, 64.2682953, 1.8765, -12.0731707, , , , , , , , , , , , , , , , , , , , , , 
0.0726923, -0.3654078, 1.89, 58.2317085, 1.89, 146.7682953, 1.89, 37.0121956, 0.0726923, 0.0240024, 1.89, -43.2926826, 1.89, 134.2073212, 1.89, -26.5853672, 0.0726923, -0.012253, 1.89, -68.0487823, 1.89, -60.9146347, 1.89, -144.0853729, 0.0726923, 0.0078889, 1.89, -15.1219511, 1.89, 38.5975609, 1.89, -40.5487823, 0.0726923, -0.0357519, 1.89, -11.7682934, 1.89, 36.0365868, 1.89, 87.2560959, 0.0726923, -0.0283665, 1.89, 129.5121918, 1.89, 76.646347, 1.89, -74.9390259, 0.0726923, 0.0337377, 1.89, -48.4146347, 1.89, 84.8170776, 1.89, -47.5609779, 0.0726923, 0.0323949, 1.89, 32.2560997, 1.89, 47.1951218, 1.89, -16.6463413, , , , , , , , , , , , , , , , , , , , , , 
0.0732115, -0.2808118, 1.9035, 55.3048782, 1.9035, 125.4878082, 1.9035, 29.5121956, 0.0732115, 0.0303807, 1.9035, -34.0853653, 1.9035, 111.5243912, 1.9035, -21.7682934, 0.0732115, -0.0135958, 1.9035, -70.9146347, 1.9035, -32.9878044, 1.9035, -114.2073212, 0.0732115, 0.0062104, 1.9035, -21.280489, 1.9035, 35.0609779, 1.9035, -41.5243912, 0.0732115, -0.0357519, 1.9035, -9.2073174, 1.9035, 91.3414688, 1.9035, 109.2682953, 0.0732115, -0.0421302, 1.9035, 113.2926865, 1.9035, 60.1219521, 1.9035, -62.8658562, 0.0732115, 0.0315557, 1.9035, -25, 1.9035, 147.0731812, 1.9035, -51.6463432, 0.0732115, 0.043473, 1.9035, 40.7926826, 1.9035, 31.7682934, 1.9035, -25.4268303, , , , , , , , , , , , , , , , , , , , , , 
0.0737308, -0.2010834, 1.917, 40.8536606, 1.917, 98.7195129, 1.917, 20.7926826, 0.0737308, 0.0374304, 1.917, -19.5731716, 1.917, 87.9268341, 1.917, -14.8170738, 0.0737308, -0.0146029, 1.917, -86.9512253, 1.917, 32.9878044, 1.917, -89.5731735, 0.0737308, 0.002182, 1.917, -29.7560978, 1.917, 39.6951218, 1.917, -43.7195129, 0.0737308, -0.0352483, 1.917, -5.4878049, 1.917, 127.1341476, 1.917, 108.7804871, 0.0737308, -0.0569009, 1.917, 108.4756088, 1.917, 49.5121956, 1.917, -55.9146347, 0.0737308, 0.0287022, 1.917, 1.2804878, 1.917, 169.8780518, 1.917, -49.2073174, 0.0737308, 0.023331, 1.917, 49.8780518, 1.917, 32.9878044, 1.917, -33.6585388, , , , , , , , , , , , , , , , , , , , , , 
0.07425, -0.1304189, 1.9305, 28.6585369, 1.9305, 81.8902435, 1.9305, 18.6585369, 0.07425, 0.0407874, 1.9305, -10.7317076, 1.9305, 67.4390259, 1.9305, -9.8170738, 0.07425, -0.0166171, 1.9305, -83.5975647, 1.9305, 132.1951294, 1.9305, -39.8170738, 0.07425, -0.0068818, 1.9305, -33.2317085, 1.9305, 58.5365868, 1.9305, -47.1341476, 0.07425, -0.0327306, 1.9305, -18.6585369, 1.9305, 142.6829376, 1.9305, 96.4634171, 0.07425, -0.0538796, 1.9305, 69.2682953, 1.9305, 94.0853653, 1.9305, -30.7926846, 0.07425, 0.0253452, 1.9305, 13.1097565, 1.9305, 172.9878082, 1.9305, -47.0731735, 0.07425, 0.0018463, 1.9305, 57.5609779, 1.9305, 50.4268303, 1.9305, -37.5609779, , , , , , , , , , , , , , , , , , , , , , 
0.0747692, -0.0574044, 1.944, 25, 1.944, 66.2195129, 1.944, 24.9390259, 0.0747692, 0.0384375, 1.944, -10.4878054, 1.944, 65.3658524, 1.944, -7.3780489, 0.0747692, -0.0203098, 1.944, -37.3780479, 1.944, 191.0975647, 1.944, 5.1829271, 0.0747692, -0.01561, 1.944, -34.6951218, 1.944, 78.7804871, 1.944, -54.5121956, 0.0747692, -0.0310521, 1.944, -35.1829262, 1.944, 145.9756165, 1.944, 88.2317123, 0.0747692, -0.0146029, 1.944, -2.2560976, 1.944, 176.1585388, 1.944, 1.1585366, 0.0747692, 0.0226596, 1.944, 6.5243902, 1.944, 159.8170776, 1.944, -51.4634171, 0.0747692, -0.0115816, 1.944, 64.1463394, 1.944, 72.1341476, 1.944, -37.9878044, , , , , , , , , , , , , , , , , , , , , , 
0.0752885, 0.0065461, 1.9575, 26.280489, 1.9575, 56.4634171, 1.9575, 34.2073174, 0.0752885, 0.0344091, 1.9575, -4.6341462, 1.9575, 69.6341476, 1.9575, -9.3292685, 0.0752885, -0.026688, 1.9575, -11.9512196, 1.9575, 226.8292694, 1.9575, 39.2073174, 0.0752885, -0.0236667, 1.9575, -31.5853672, 1.9575, 104.2073212, 1.9575, -63.3536606, 0.0752885, -0.0317235, 1.9575, -34.5731697, 1.9575, 143.2317047, 1.9575, 87.4390259, 0.0752885, 0.0231632, 1.9575, -45.4268303, 1.9575, 243.9634247, 1.9575, 30.9756107, 0.0752885, 0.0223239, 1.9575, 17.1341476, 1.9575, 137.6219482, 1.9575, -47.1951218, 0.0752885, -0.0263523, 1.9575, 71.6463394, 1.9575, 90.4268341, 1.9575, -36.0975609, , , , , , , , , , , , , , , , , , , , , , 
0.0758077, 0.0454871, 1.971, 24.6341476, 1.971, 53.6585388, 1.971, 39.4512215, 0.0758077, 0.0337377, 1.971, 2.5609756, 1.971, 72.4390259, 1.971, -11.4024391, 0.0758077, -0.0303807, 1.971, 5.1219511, 1.971, 223.7804871, 1.971, 41.0975609, 0.0758077, -0.0317235, 1.971, -26.3414631, 1.971, 123.1097565, 1.971, -70.5487823, 0.0758077, -0.0325628, 1.971, -9.7560978, 1.971, 124.8780518, 1.971, 85.4878082, 0.0758077, 0.0176242, 1.971, -42.9268303, 1.971, 242.7439117, 1.971, 53.1097565, 0.0758077, 0.0213169, 1.971, 7.4390244, 1.971, 124.5731735, 1.971, -30.060976, 0.0758077, -0.0391089, 1.971, 78.1097565, 1.971, 100.4268341, 1.971, -32.0121956, , , , , , , , , , , , , , , , , , , , , , 
0.0763269, 0.0439765, 1.9845, 22.439024, 1.9845, 59.8780518, 1.9845, 51.5243912, 0.0763269, 0.0340734, 1.9845, 11.0365858, 1.9845, 73.5975647, 1.9845, -20.3048782, 0.0763269, -0.0313878, 1.9845, 14.5731707, 1.9845, 207.6829376, 1.9845, 5.7926831, 0.0763269, -0.0357519, 1.9845, -23.6585369, 1.9845, 129.6341553, 1.9845, -75.3048782, 0.0763269, -0.0313878, 1.9845, 26.5243912, 1.9845, 81.7073212, 1.9845, 73.7804871, 0.0763269, -0.0102388, 1.9845, -6.9512196, 1.9845, 238.2926941, 1.9845, 61.0365868, 0.0763269, 0.0199741, 1.9845, -35.5487823, 1.9845, 101.646347, 1.9845, -14.7560978, 0.0763269, -0.0431373, 1.9845, 80.8536606, 1.9845, 104.4512253, 1.9845, -29.6951218, , , , , , , , , , , , , , , , , , , , , , 
0.0768462, 0.0125887, 1.998, 21.5853672, 1.998, 71.8292694, 1.998, 66.2195129, 0.0768462, 0.0327306, 1.998, 26.6463413, 1.998, 89.8780518, 1.998, -28.6585369, 0.0768462, -0.0317235, 1.998, 11.7073174, 1.998, 230.5487823, 1.998, -25.3048782, 0.0768462, -0.0330663, 1.998, -25.9146347, 1.998, 132.6829224, 1.998, -77.68293, 0.0768462, -0.030045, 1.998, 61.8902435, 1.998, 30.5487804, 1.998, 50.9756126, 0.0768462, -0.0260166, 1.998, 25.7317085, 1.998, 227.4390259, 1.998, 57.0121956, 0.0768462, 0.0193027, 1.998, -81.9512177, 1.998, 57.4390259, 1.998, -18.4756107, 0.0768462, -0.0438087, 1.998, 85.9146347, 1.998, 114.0853653, 1.998, -29.7560978, , , , , , , , , , , , , , , , , , , , , , 
0.0773654, -0.0243381, 2.0115, 20.6097565, 2.0115, 82.8658524, 2.0115, 80, 0.0773654, 0.0298772, 2.0115, 42.6829262, 2.0115, 112.2561035, 2.0115, -34.8170738, 0.0773654, -0.0293736, 2.0115, 24.7560978, 2.0115, 256.2195129, 2.0115, 10.3048782, 0.0773654, -0.0297093, 2.0115, -28.5975609, 2.0115, 146.3414612, 2.0115, -78.5975647, 0.0773654, -0.0283665, 2.0115, 86.646347, 2.0115, 5, 2.0115, 9.2682924, 0.0773654, -0.0256809, 2.0115, -40.1219521, 2.0115, 195.7317047, 2.0115, 58.3536606, 0.0773654, 0.0166171, 2.0115, -137.3780518, 2.0115, 32.1951218, 2.0115, 0.1219512, 0.0773654, -0.0498512, 2.0115, 91.3414688, 2.0115, 117.3780518, 2.0115, -39.1463432, , , , , , , , , , , , , , , , , , , , , , 
0.0778846, -0.0384375, 2.025, 9.5731707, 2.025, 98.7195129, 2.025, 92.8048782, 0.0778846, 0.0260166, 2.025, 58.841465, 2.025, 121.1585388, 2.025, -45.6097565, 0.0778846, -0.0229953, 2.025, 37.9268303, 2.025, 411.3414612, 2.025, 130.6707306, 0.0778846, -0.0280308, 2.025, -24.5731716, 2.025, 171.7682953, 2.025, -75.18293, 0.0778846, -0.0256809, 2.025, 84.0243912, 2.025, 92.3170776, 2.025, -24.8170738, 0.0778846, -0.0243381, 2.025, -162.5, 2.025, 309.8170776, 2.025, 42.0731735, 0.0778846, 0.014435, 2.025, -30, 2.025, 82.9268341, 2.025, 37.9878044, 0.0778846, -0.061265, 2.025, 85.5487823, 2.025, 148.5975647, 2.025, -56.8292694, , , , , , , , , , , , , , , , , , , , , , 
0.0784038, -0.0357519, 2.0385, -10, 2.0385, 126.7682953, 2.0385, 108.1707306, 0.0784038, 0.0223239, 2.0385, 97.5609741, 2.0385, 130.9756165, 2.0385, -57.5, 0.0784038, -0.0206455, 2.0385, -140.5487823, 2.0385, 208.9024506, 2.0385, 189.9390259, 0.0784038, -0.0283665, 2.0385, -20.6707325, 2.0385, 212.9268341, 2.0385, -58.4146347, 0.0784038, -0.0236667, 2.0385, 60.2439041, 2.0385, 133.3536682, 2.0385, -10.4268293, 0.0784038, -0.0256809, 2.0385, -119.4512253, 2.0385, 254.9390259, 2.0385, -12.1341467, 0.0784038, 0.0135958, 2.0385, 26.1585369, 2.0385, 161.0365906, 2.0385, -35.5487823, 0.0784038, -0.064622, 2.0385, 65.18293, 2.0385, 180.9756165, 2.0385, -80.0609741, , , , , , , , , , , , , , , , , , , , , , 
0.0789231, -0.0354162, 2.052, -13.2926836, 2.052, 150.1219482, 2.052, 118.2317123, 0.0789231, 0.0196384, 2.052, 145.2439117, 2.052, 142.1341553, 2.052, -43.1097565, 0.0789231, -0.0250095, 2.052, -57.8048782, 2.052, -12.7439032, 2.052, 131.7682953, 0.0789231, -0.0283665, 2.052, -49.7560997, 2.052, 187.3780518, 2.052, -46.4024391, 0.0789231, -0.0223239, 2.052, 15.1829271, 2.052, 58.2926826, 2.052, 53.0487823, 0.0789231, -0.0229953, 2.052, -106.8292694, 2.052, 90, 2.052, -22.0121956, 0.0789231, 0.0151064, 2.052, -62.8048782, 2.052, 12.6829271, 2.052, -82.0731735, 0.0789231, -0.0533761, 2.052, 44.1463432, 2.052, 191.5243988, 2.052, -110.2439041, , , , , , , , , , , , , , , , , , , , , , 
0.0794423, -0.0428016, 2.0655, -6.5853658, 2.0655, 161.0975647, 2.0655, 125.0609818, 0.0794423, 0.0196384, 2.0655, 160.8536682, 2.0655, 155, 2.0655, -19.2073174, 0.0794423, -0.030045, 2.0655, 158.3536682, 2.0655, -312.4390259, 2.0655, 43.1097565, 0.0794423, -0.0307164, 2.0655, -100.3048782, 2.0655, 109.0853653, 2.0655, -53.9634171, 0.0794423, -0.0216526, 2.0655, -43.841465, 2.0655, -208.1707306, 2.0655, 28.5975609, 0.0794423, -0.0182956, 2.0655, -101.7073212, 2.0655, -99.7561035, 2.0655, 1.8902439, 0.0794423, 0.0172885, 2.0655, 0, 2.0655, 0, 2.0655, 0, 0.0794423, -0.0354162, 2.0655, 38.1707344, 2.0655, 184.3902435, 2.0655, -121.5243912, , , , , , , , , , , , , , , , , , , , , , 
0.0799615, -0.0616007, 2.079, -47.9268303, 2.079, 168.7195129, 2.079, 124.9390259, 0.0799615, 0.0209812, 2.079, 142.9878082, 2.079, 168.4756165, 2.079, 2.1341465, 0.0799615, -0.0303807, 2.079, 201.9512177, 2.079, -293.5365906, 2.079, 17.5, 0.0799615, -0.0344091, 2.079, -107.3170776, 2.079, 58.6585388, 2.079, -64.5121994, 0.0799615, -0.0216526, 2.079, -33.9024391, 2.079, -233.8414764, 2.079, 12.5, 0.0799615, -0.0229953, 2.079, -83.8414688, 2.079, -319.0243835, 2.079, 89.0853653, 0.0799615, 0.0199741, 2.079, -53.3536606, 2.079, -66.8902435, 2.079, 29.5731716, 0.0799615, -0.0384375, 2.079, 70.5487823, 2.079, 141.4024353, 2.079, -90.4268341, , , , , , , , , , , , , , , , , , , , , , 
0.0804808, -0.0783856, 2.0925, -100.3658524, 2.0925, 122.3170776, 2.0925, 118.9024429, 0.0804808, 0.0213169, 2.0925, 121.1585388, 2.0925, 145, 2.0925, 18.5365849, 0.0804808, -0.0250095, 2.0925, 88.6585388, 2.0925, -273.7195129, 2.0925, 52.6219521, 0.0804808, -0.0357519, 2.0925, -78.9024429, 2.0925, -10.9146347, 2.0925, -77.4390259, 0.0804808, -0.0224918, 2.0925, 54.2682953, 2.0925, -70.6097565, 2.0925, 5, 0.0804808, -0.043473, 2.0925, -37.5, 2.0925, -298.1707458, 2.0925, 85.7317123, 0.0804808, 0.0194705, 2.0925, -52.2560997, 2.0925, -47.8658562, 2.0925, 56.4024391, 0.0804808, -0.0659648, 2.0925, 94.9390259, 2.0925, 84.3292694, 2.0925, -47.2560997, , , , , , , , , , , , , , , , , , , , , , 
0.081, -0.0694896, 2.106, -114.7561035, 2.106, 45.6097565, 2.106, 105.6707306, 0.081, 0.0223239, 2.106, 102.5, 2.106, 101.3414688, 2.106, 31.0975609, 0.081, -0.0196384, 2.106, 53.7195129, 2.106, -192.5, 2.106, 61.8292694, 0.081, -0.0318914, 2.106, -48.6585388, 2.106, -22.560976, 2.106, -52.4390259, 0.081, -0.0241703, 2.106, 113.7195129, 2.106, -14.8780489, 2.106, -47.6829262, 0.081, -0.0730144, 2.106, -62.4390259, 2.106, -137.4390259, 2.106, 42.1341476, 0.081, 0.0181277, 2.106, -69.6341476, 2.106, -88.7195129, 2.106, 59.2682953, 0.081, -0.0941634, 2.106, 44.5731735, 2.106, 43.5365868, 2.106, -25.4268303, , , , , , , , , , , , , , , , , , , , , , 
0.0815192, -0.0431373, 2.1195, -108.0487823, 2.1195, 24.7560978, 2.1195, 89.8780518, 0.0815192, 0.0199741, 2.1195, 93.3536606, 2.1195, 54.2682953, 2.1195, 30, 0.0815192, -0.0157778, 2.1195, -4.0243902, 2.1195, 24.7560978, 2.1195, 67.4390259, 0.0815192, -0.0162814, 2.1195, -38.2926826, 2.1195, -14.5121956, 2.1195, -23.5975609, 0.0815192, -0.0240024, 2.1195, 113.5365906, 2.1195, 14.3292685, 2.1195, -83.5975647, 0.0815192, -0.0955062, 2.1195, -64.6341476, 2.1195, 49.9390259, 2.1195, 12.3170738, 0.0815192, 0.0179599, 2.1195, -72.8658524, 2.1195, -62.9878082, 2.1195, 28.5365868, 0.0815192, -0.1075914, 2.1195, 13.7195129, 2.1195, 18.9024391, 2.1195, -23.1097565, , , , , , , , , , , , , , , , , , , , , , 
0.0820385, -0.0392767, 2.133, -91.5853653, 2.133, 21.3414631, 2.133, 50.8536606, 0.0820385, 0.0159457, 2.133, 96.5243912, 2.133, 12.9878054, 2.133, 20.4268303, 0.0820385, -0.0142672, 2.133, -9.2073174, 2.133, 146.2804871, 2.133, 59.9390259, 0.0820385, 0.0085603, 2.133, -43.1097565, 2.133, -20.3048782, 2.133, -8.5975609, 0.0820385, -0.0219883, 2.133, 77.1951218, 2.133, 2.195122, 2.133, -82.2560959, 0.0820385, -0.0981918, 2.133, -58.7804909, 2.133, 167.6219482, 2.133, 28.7195129, 0.0820385, 0.0186313, 2.133, -67.1341476, 2.133, -45.1829262, 2.133, -4.0853658, 0.0820385, -0.0916457, 2.133, 8.5365858, 2.133, 11.5853662, 2.133, -25.9756107, , , , , , , , , , , , , , , , , , , , , , 
0.0825577, -0.054551, 2.1465, -76.646347, 2.1465, 40.2439041, 2.1465, 19.8170738, 0.0825577, 0.0146029, 2.1465, 100.6097565, 2.1465, 4.8170733, 2.1465, 20.4878044, 0.0825577, -0.0174563, 2.1465, -3.0487804, 2.1465, 199.8170776, 2.1465, 69.7560959, 0.0825577, 0.0068818, 2.1465, -46.0365868, 2.1465, -29.3902454, 2.1465, 0.9146342, 0.0825577, -0.0181277, 2.1465, 32.8048782, 2.1465, -29.3292694, 2.1465, -20.3658543, 0.0825577, -0.0605936, 2.1465, -69.5731735, 2.1465, 201.7682953, 2.1465, 40.9756088, 0.0825577, 0.0125887, 2.1465, -70.7317123, 2.1465, -24.4512196, 2.1465, -2.8658538, 0.0825577, -0.04448, 2.1465, 7.0731707, 2.1465, -4.4512196, 2.1465, -38.4146347, , , , , , , , , , , , , , , , , , , , , , 
0.0830769, -0.0486763, 2.16, -88.5365906, 2.16, 37.6219521, 2.16, 5.7926831, 0.0830769, 0.0139315, 2.16, 89.5121994, 2.16, 1.9512196, 2.16, 26.2195129, 0.0830769, -0.0196384, 2.16, 15.3048782, 2.16, 150.2439117, 2.16, 61.7682953, 0.0830769, -0.0236667, 2.16, -44.8170738, 2.16, -37.2560997, 2.16, 8.2926826, 0.0830769, -0.0157778, 2.16, 42.9268303, 2.16, -22.5, 2.16, 47.5, 0.0830769, 0.0050355, 2.16, -63.6585388, 2.16, 133.4756165, 2.16, 38.4756088, 0.0830769, 0.002182, 2.16, -79.0243912, 2.16, -13.4756098, 2.16, 5.4878049, 0.0830769, -0.0068818, 2.16, 15.5487804, 2.16, -12.560976, 2.16, -53.4146347, , , , , , , , , , , , , , , , , , , , , , 
0.0835962, -0.0115816, 2.1735, -102.4390259, 2.1735, 12.6829271, 2.1735, -1.7073171, 0.0835962, 0.0129244, 2.1735, 66.4634171, 2.1735, -6.7682929, 2.1735, 34.1463432, 0.0835962, -0.0216526, 2.1735, 20.6097565, 2.1735, 8.2926826, 2.1735, 33.0487823, 0.0835962, -0.0391089, 2.1735, -39.8780479, 2.1735, -38.841465, 2.1735, 15.9756098, 0.0835962, -0.0142672, 2.1735, 82.4390259, 2.1735, -4.8780489, 2.1735, 68.5975647, 0.0835962, 0.0216526, 2.1735, -22.0731716, 2.1735, -28.1097565, 2.1735, 27.9878063, 0.0835962, -0.005539, 2.1735, -87.5609741, 2.1735, 3.5365853, 2.1735, 0.1829268, 0.0835962, -0.0276951, 2.1735, 22.560976, 2.1735, -15.8536587, 2.1735, -60.1219521, , , , , , , , , , , , , , , , , , , , , , 
0.0841154, 0.0441444, 2.187, -96.5243912, 2.187, -4.0853658, 2.187, -12.4390249, 0.0841154, 0.0132601, 2.187, 45.9756126, 2.187, -22.9268303, 2.187, 39.8170738, 0.0841154, -0.0250095, 2.187, 25.2439022, 2.187, -132.3780518, 2.187, 4.2682929, 0.0841154, -0.0322271, 2.187, -20.5487804, 2.187, -15.3658543, 2.187, 29.6341476, 0.0841154, -0.0135958, 2.187, 93.8414688, 2.187, 16.8902435, 2.187, 53.1707344, 0.0841154, -0.0109102, 2.187, 3.7195122, 2.187, -136.5243988, 2.187, 20.9146347, 0.0841154, -0.0102388, 2.187, -89.3292694, 2.187, 8.841464, 2.187, -15.9146347, 0.0841154, -0.0703288, 2.187, 3.5975611, 2.187, -16.9512196, 2.187, -60.3048782, , , , , , , , , , , , , , , , , , , , , , 
0.0846346, 0.0948348, 2.2005, -92.6219559, 2.2005, -18.1097565, 2.2005, -22.8048782, 0.0846346, 0.0129244, 2.2005, 34.8780479, 2.2005, -35.0609779, 2.2005, 41.8292694, 0.0846346, -0.0270237, 2.2005, 44.6951218, 2.2005, -186.7073212, 2.2005, -16.8292694, 0.0846346, -0.0263523, 2.2005, 8.1097565, 2.2005, 15.1829271, 2.2005, 50.2439041, 0.0846346, -0.0129244, 2.2005, 91.8902435, 2.2005, 24.5731716, 2.2005, 42.8658562, 0.0846346, -0.0354162, 2.2005, 6.4024391, 2.2005, -161.646347, 2.2005, 19.6341476, 0.0846346, -0.0142672, 2.2005, -83.1097565, 2.2005, 14.9390249, 2.2005, -17.3170738, 0.0846346, -0.0760357, 2.2005, -35.6097565, 2.2005, -27.0731716, 2.2005, -54.3902435, , , , , , , , , , , , , , , , , , , , , , 
0.0851538, 0.124712, 2.214, -98.2317123, 2.214, -33.1097565, 2.214, -29.0853672, 0.0851538, 0.0105745, 2.214, 30, 2.214, -50.0609779, 2.214, 44.2073174, 0.0851538, -0.0287022, 2.214, 53.9634171, 2.214, -147.8048859, 2.214, -21.0975609, 0.0851538, -0.0263523, 2.214, 36.341465, 2.214, 38.0487823, 2.214, 68.2317123, 0.0851538, -0.0129244, 2.214, 84.146347, 2.214, 20.6707325, 2.214, 30.4878063, 0.0851538, -0.0387732, 2.214, 2.9878049, 2.214, -140.6707306, 2.214, 19.4512196, 0.0851538, -0.0169528, 2.214, -81.3414688, 2.214, -0.8536586, 2.214, -8.9634151, 0.0851538, -0.0626078, 2.214, -68.2317123, 2.214, -35, 2.214, -40.7317085, , , , , , , , , , , , , , , , , , , , , , 
0.0856731, 0.1310903, 2.2275, -112.6219559, 2.2275, -54.1463432, 2.2275, -31.0365868, 0.0856731, 0.0105745, 2.2275, 32.5609779, 2.2275, -74.9390259, 2.2275, 47.3780518, 0.0856731, -0.026688, 2.2275, 30.9146347, 2.2275, -47.2560997, 2.2275, -6.0365853, 0.0856731, -0.027863, 2.2275, 60.1219521, 2.2275, 65.7317123, 2.2275, 87.68293, 0.0856731, -0.0129244, 2.2275, 76.4024429, 2.2275, -2.5609756, 2.2275, 22.9268303, 0.0856731, -0.0275273, 2.2275, 3.7804878, 2.2275, -63.1097565, 2.2275, 26.8902454, 0.0856731, -0.0213169, 2.2275, -84.0853653, 2.2275, -27.4390259, 2.2275, 0.0609756, 0.0856731, -0.0464942, 2.2275, -99.7561035, 2.2275, -34.7560997, 2.2275, -27.0121956, , , , , , , , , , , , , , , , , , , , , , 
