Application:, Trigno Discover (2.0.1.3)
Date/Time:, 9/18/2025 4:01:37 PM
Collection Length (seconds):, 4.995
Tibilais Anterior left (85586), , Gastrocnemius right (85650), , , , , , , , Rectus Femoris left (85878), , Rectus Femoris right (85844), , Hamstrings left (85904), , Tibilais Anterior right (85641), , Hamstrings right (85873), , Gastrocnemius left (85605)
sensor mode: 40, , sensor mode: 49, , , , , , , , sensor mode: 40, , sensor mode: 40, , sensor mode: 40, , sensor mode: 40, , sensor mode: 40, , sensor mode: 40
EMG 1 Time Series (s), EMG 1 (mV), EMG 1 Time Series (s), EMG 1 (mV), GYRO X Time Series (s), GYRO X (deg/s), GYRO Y Time Series (s), GYRO Y (deg/s), GYRO Z Time Series (s), GYRO Z (deg/s), EMG 1 Time Series (s), EMG 1 (mV), EMG 1 Time Series (s), EMG 1 (mV), EMG 1 Time Series (s), EMG 1 (mV), EMG 1 Time Series (s), EMG 1 (mV), EMG 1 Time Series (s), EMG 1 (mV), EMG 1 Time Series (s), EMG 1 (mV)
, 2148.1481 Hz, , 1925.9259 Hz, , 74.0741 Hz, , 74.0741 Hz, , 74.0741 Hz, , 2148.1481 Hz, , 2148.1481 Hz, , 2148.1481 Hz, , 2148.1481 Hz, , 2148.1481 Hz, , 2148.1481 Hz
, 0.00046551724137931035 s, , 0.0005192307692307692 s, , 0.0135 s, , 0.0135 s, , 0.0135 s, , 0.00046551724137931035 s, , 0.00046551724137931035 s, , 0.00046551724137931035 s, , 0.00046551724137931035 s, , 0.00046551724137931035 s, , 0.00046551724137931035 s, , Type, Name, Label, Time (s), , Pair, E1, E2, T1, T2, V1, V2, Sensor, Channel, Units, Delta T, RMS, PKPK, Peak Value, TPK, Integral
0, -0.0085603, 0, -0.0082246, 0, 56.4634171, 0, -23.3536587, 0, -12.4390249, 0, -0.0169528, 0, 0.0198062, 0, -0.0256809, 0, -0.0099031, 0, -0.0058747, 0, 0.1075914, , , , , , , , , , , , , , , , , , , , , , 
0.0004655, -0.0062104, 0.0005192, -0.0036927, 0.0135, 65, 0.0135, -12.6219511, 0.0135, -15.060976, 0.0004655, -0.0203098, 0.0004655, 0.0203098, 0.0004655, -0.023331, 0.0004655, -0.0102388, 0.0004655, -0.005539, 0.0004655, 0.0914778, , , , , , , , , , , , , , , , , , , , , , 
0.000931, -0.0072175, 0.0010385, -0.0102388, 0.027, 68.1707306, 0.027, -8.2317076, 0.027, -18.4756107, 0.000931, -0.0243381, 0.000931, 0.0203098, 0.000931, -0.0199741, 0.000931, -0.0159457, 0.000931, -0.0036927, 0.000931, 0.0562295, , , , , , , , , , , , , , , , , , , , , , 
0.0013966, -0.0078889, 0.0015577, -0.0169528, 0.0405, 55.9146347, 0.0405, -15.7926836, 0.0405, -20.3658543, 0.0013966, -0.0250095, 0.0013966, 0.0203098, 0.0013966, -0.0196384, 0.0013966, -0.0256809, 0.0013966, -0.0028534, 0.0013966, 0.0391089, , , , , , , , , , , , , , , , , , , , , , 
0.0018621, -0.0072175, 0.0020769, -0.0176242, 0.054, 55.9756126, 0.054, -10.9146347, 0.054, -22.6829281, 0.0018621, -0.0234989, 0.0018621, 0.0216526, 0.0018621, -0.0216526, 0.0018621, -0.0394446, 0.0018621, -0.0041962, 0.0018621, 0.0495155, , , , , , , , , , , , , , , , , , , , , , 
0.0023276, -0.0082246, 0.0025962, -0.0115816, 0.0675, 60.0609779, 0.0675, -6.6463418, 0.0675, -20.2439022, 0.0023276, -0.0216526, 0.0023276, 0.0231632, 0.0023276, -0.0240024, 0.0023276, -0.0508583, 0.0023276, -0.0050355, 0.0023276, 0.0803998, , , , , , , , , , , , , , , , , , , , , , 
0.0027931, -0.0104067, 0.0031154, -0.0048676, 0.081, 67.7439041, 0.081, -5.9756098, 0.081, -11.8902445, 0.0027931, -0.0206455, 0.0027931, 0.0246738, 0.0027931, -0.0270237, 0.0027931, -0.0538796, 0.0027931, -0.0050355, 0.0027931, 0.1059129, , , , , , , , , , , , , , , , , , , , , , 
0.0032586, -0.0125887, 0.0036346, -0.0030213, 0.0945, 69.6951218, 0.0945, -18.4146347, 0.0945, -21.5853672, 0.0032586, -0.0208133, 0.0032586, 0.0260166, 0.0032586, -0.0305486, 0.0032586, -0.0498512, 0.0032586, -0.0052033, 0.0032586, 0.1018845, , , , , , , , , , , , , , , , , , , , , , 
0.0037241, -0.0135958, 0.0041538, -0.0038605, 0.108, 66.7682953, 0.108, -26.2195129, 0.108, -29.6951218, 0.0037241, -0.0203098, 0.0037241, 0.0263523, 0.0037241, -0.0313878, 0.0037241, -0.0461585, 0.0037241, -0.005539, 0.0037241, 0.0696574, , , , , , , , , , , , , , , , , , , , , , 
0.0041897, -0.0142672, 0.0046731, -0.0015106, 0.1215, 60.6097565, 0.1215, -1.2195122, 0.1215, -28.5365868, 0.0041897, -0.018967, 0.0041897, 0.0260166, 0.0041897, -0.0263523, 0.0041897, -0.0433051, 0.0041897, -0.0045319, 0.0041897, 0.0377661, , , , , , , , , , , , , , , , , , , , , , 
0.0046552, -0.01561, 0.0051923, 0.0025177, 0.135, 65.6707306, 0.135, 0.1829268, 0.135, -28.780489, 0.0046552, -0.0176242, 0.0046552, 0.0253452, 0.0046552, -0.018967, 0.0046552, -0.0360876, 0.0046552, -0.005539, 0.0046552, 0.0199741, , , , , , , , , , , , , , , , , , , , , , 
0.0051207, -0.0179599, 0.0057115, 0.0041962, 0.1485, 90.9756088, 0.1485, 1.9512196, 0.1485, -32.0121956, 0.0051207, -0.0179599, 0.0051207, 0.0250095, 0.0051207, -0.0146029, 0.0051207, -0.0273594, 0.0051207, -0.0062104, 0.0051207, 0.0052033, , , , , , , , , , , , , , , , , , , , , , 
0.0055862, -0.0198062, 0.0062308, 0.002182, 0.162, 98.5365906, 0.162, -0.2439024, 0.162, -33.9024391, 0.0055862, -0.0199741, 0.0055862, 0.0243381, 0.0055862, -0.0135958, 0.0055862, -0.0203098, 0.0055862, -0.0057069, 0.0055862, -0.0092317, , , , , , , , , , , , , , , , , , , , , , 
0.0060517, -0.021149, 0.00675, 0.0003357, 0.1755, 100.8536606, 0.1755, -26.7682934, 0.1755, -35.0609779, 0.0060517, -0.0203098, 0.0060517, 0.0251774, 0.0060517, -0.0139315, 0.0060517, -0.0129244, 0.0060517, -0.0048676, 0.0060517, -0.0062104, , , , , , , , , , , , , , , , , , , , , , 
0.0065172, -0.0236667, 0.0072692, -0.0001678, 0.189, 109.2073212, 0.189, -61.0365868, 0.189, -42.8658562, 0.0065172, -0.018967, 0.0065172, 0.0258488, 0.0065172, -0.0152743, 0.0065172, -0.0003357, 0.0065172, -0.0048676, 0.0065172, 0.0176242, , , , , , , , , , , , , , , , , , , , , , 
0.0069828, -0.0260166, 0.0077885, -0.0005035, 0.2025, 113.8414688, 0.2025, -57.4390259, 0.2025, -50.6707344, 0.0069828, -0.018967, 0.0069828, 0.026688, 0.0069828, -0.0166171, 0.0069828, 0.0099031, 0.0069828, -0.0041962, 0.0069828, 0.0374304, , , , , , , , , , , , , , , , , , , , , , 
0.0074483, -0.026688, 0.0083077, -0.0011749, 0.216, 110.7926865, 0.216, -58.1097565, 0.216, -55.5487823, 0.0074483, -0.0196384, 0.0074483, 0.026688, 0.0074483, -0.0172885, 0.0074483, 0.0139315, 0.0074483, -0.0031891, 0.0074483, 0.0293736, , , , , , , , , , , , , , , , , , , , , , 
0.0079138, -0.0246738, 0.0088269, -0.0001678, 0.2295, 98.8414688, 0.2295, -75.6707306, 0.2295, -55.8536606, 0.0079138, -0.0203098, 0.0079138, 0.026688, 0.0079138, -0.0169528, 0.0079138, 0.0129244, 0.0079138, -0.0025177, 0.0079138, -0.005539, , , , , , , , , , , , , , , , , , , , , , 
0.0083793, -0.0243381, 0.0093462, -0.0001678, 0.243, 87.0121994, 0.243, -72.0731735, 0.243, -50.6097565, 0.0083793, -0.0218204, 0.0083793, 0.026688, 0.0083793, -0.01561, 0.0083793, 0.0058747, 0.0083793, -0.0016785, 0.0083793, -0.0547189, , , , , , , , , , , , , , , , , , , , , , 
0.0088448, -0.0243381, 0.0098654, -0.0041962, 0.2565, 68.4146347, 0.2565, -37.5609779, 0.2565, -34.9390259, 0.0088448, -0.0224918, 0.0088448, 0.0270237, 0.0088448, -0.0142672, 0.0088448, -0.0062104, 0.0088448, -0.0018463, 0.0088448, -0.0975204, , , , , , , , , , , , , , , , , , , , , , 
0.0093103, -0.0229953, 0.0103846, -0.0109102, 0.27, 41.2804871, 0.27, 8.9024391, 0.27, -6.3414636, 0.0093103, -0.0229953, 0.0093103, 0.0270237, 0.0093103, -0.0139315, 0.0093103, -0.0196384, 0.0093103, -0.0020142, 0.0093103, -0.1149767, , , , , , , , , , , , , , , , , , , , , , 
0.0097759, -0.0209812, 0.0109038, -0.0140993, 0.2835, 30.8536587, 0.2835, 34.5731697, 0.2835, 29.8170738, 0.0097759, -0.0218204, 0.0097759, 0.0258488, 0.0097759, -0.0162814, 0.0097759, -0.0273594, 0.0097759, -0.0028534, 0.0097759, -0.1143053, , , , , , , , , , , , , , , , , , , , , , 
0.0102414, -0.0193027, 0.0114231, -0.0129244, 0.297, 7.4390244, 0.297, -29.6951218, 0.297, 62.0731735, 0.0102414, -0.0206455, 0.0102414, 0.0253452, 0.0102414, -0.0198062, 0.0102414, -0.0261845, 0.0102414, -0.0023499, 0.0102414, -0.1139696, , , , , , , , , , , , , , , , , , , , , , 
0.0107069, -0.0186313, 0.0119423, -0.0102388, 0.3105, -70.5487823, 0.3105, -13.780488, 0.3105, 82.0121994, 0.0107069, -0.0199741, 0.0107069, 0.0253452, 0.0107069, -0.0240024, 0.0107069, -0.0216526, 0.0107069, -0.0028534, 0.0107069, -0.1065843, , , , , , , , , , , , , , , , , , , , , , 
0.0111724, -0.0193027, 0.0124615, -0.0095674, 0.324, -100.4268341, 0.324, 31.7682934, 0.324, 86.5243912, 0.0111724, -0.0209812, 0.0111724, 0.0246738, 0.0111724, -0.0270237, 0.0111724, -0.0176242, 0.0111724, -0.0035248, 0.0111724, -0.0740215, , , , , , , , , , , , , , , , , , , , , , 
0.0116379, -0.0193027, 0.0129808, -0.0095674, 0.3375, -105.9146347, 0.3375, 111.2195129, 0.3375, 95.4878082, 0.0116379, -0.0223239, 0.0116379, 0.0253452, 0.0116379, -0.0297093, 0.0116379, -0.0169528, 0.0116379, -0.0041962, 0.0116379, -0.0206455, , , , , , , , , , , , , , , , , , , , , , 
0.0121034, -0.0196384, 0.0135, -0.012253, 0.351, -94.2682953, 0.351, 117.6219559, 0.351, 112.86586, 0.0121034, -0.0213169, 0.0121034, 0.0260166, 0.0121034, -0.0327306, 0.0121034, -0.0159457, 0.0121034, -0.0041962, 0.0121034, 0.0199741, , , , , , , , , , , , , , , , , , , , , , 
0.012569, -0.023331, 0.0140192, -0.0146029, 0.3645, -101.9512253, 0.3645, 102.6219559, 0.3645, 122.1951218, 0.012569, -0.0191348, 0.012569, 0.0250095, 0.012569, -0.0323949, 0.012569, -0.0109102, 0.012569, -0.0035248, 0.012569, 0.0276951, , , , , , , , , , , , , , , , , , , , , , 
0.0130345, -0.030045, 0.0145385, -0.0146029, 0.378, -108.0487823, 0.378, 73.6585388, 0.378, 118.0487823, 0.0130345, -0.0169528, 0.0130345, 0.0248417, 0.0130345, -0.0310521, 0.0130345, -0.0035248, 0.0130345, -0.0035248, 0.0130345, 0.0078889, , , , , , , , , , , , , , , , , , , , , , 
0.0135, -0.0406195, 0.0150577, -0.0146029, 0.3915, -112.1951218, 0.3915, 52.3170738, 0.3915, 112.2561035, 0.0135, -0.01561, 0.0135, 0.0253452, 0.0135, -0.0305486, 0.0135, 0.0018463, 0.0135, -0.0028534, 0.0135, -0.0256809, , , , , , , , , , , , , , , , , , , , , , 
0.0139655, -0.0542153, 0.0155769, -0.0167849, 0.405, -114.146347, 0.405, 23.9024391, 0.405, 110.8536606, 0.0139655, -0.01561, 0.0139655, 0.0270237, 0.0139655, -0.030045, 0.0139655, 0.0016785, 0.0139655, -0.0028534, 0.0139655, -0.0528725, , , , , , , , , , , , , , , , , , , , , , 
0.014431, -0.0624399, 0.0160962, -0.0204776, 0.4185, -107.9878082, 0.4185, -10.7926836, 0.4185, 107.5, 0.014431, -0.0157778, 0.014431, 0.026688, 0.014431, -0.0270237, 0.014431, -0.002182, 0.014431, -0.0041962, 0.014431, -0.0540475, , , , , , , , , , , , , , , , , , , , , , 
0.0148966, -0.0575723, 0.0166154, -0.0231632, 0.432, -90.7317123, 0.432, -24.8170738, 0.432, 104.2073212, 0.0148966, -0.0166171, 0.0148966, 0.0253452, 0.0148966, -0.0238346, 0.0148966, -0.0031891, 0.0148966, -0.0038605, 0.0148966, -0.0303807, , , , , , , , , , , , , , , , , , , , , , 
0.0153621, -0.0473335, 0.0171346, -0.0263523, 0.4455, -69.2682953, 0.4455, -19.2682934, 0.4455, 95.3048782, 0.0153621, -0.01561, 0.0153621, 0.0250095, 0.0153621, -0.0246738, 0.0153621, -0.0023499, 0.0153621, -0.0023499, 0.0153621, -0.0015106, , , , , , , , , , , , , , , , , , , , , , 
0.0158276, -0.04448, 0.0176538, -0.0310521, 0.459, -34.9390259, 0.459, -18.4146347, 0.459, 81.0975647, 0.0158276, -0.0142672, 0.0158276, 0.0243381, 0.0158276, -0.0276951, 0.0158276, -0.0062104, 0.0158276, -0.0025177, 0.0158276, 0.0139315, , , , , , , , , , , , , , , , , , , , , , 
0.0162931, -0.0480049, 0.0181731, -0.0397803, 0.4725, -4.2073174, 0.4725, 3.2317073, 0.4725, 71.0975647, 0.0162931, -0.0115816, 0.0162931, 0.023331, 0.0162931, -0.0323949, 0.0162931, -0.0162814, 0.0162931, -0.0041962, 0.0162931, 0.0125887, , , , , , , , , , , , , , , , , , , , , , 
0.0167586, -0.0471656, 0.0186923, -0.0538796, 0.486, 24.8780499, 0.486, 16.280489, 0.486, 52.8658562, 0.0167586, -0.0095674, 0.0167586, 0.0240024, 0.0167586, -0.0350805, 0.0167586, -0.0270237, 0.0167586, -0.0058747, 0.0167586, 0.0041962, , , , , , , , , , , , , , , , , , , , , , 
0.0172241, -0.0419623, 0.0192115, -0.0609293, 0.4995, 44.5121956, 0.4995, 8.2926826, 0.4995, 39.5121956, 0.0172241, -0.0090639, 0.0172241, 0.0236667, 0.0172241, -0.0350805, 0.0172241, -0.0340734, 0.0172241, -0.0058747, 0.0172241, -0.0082246, , , , , , , , , , , , , , , , , , , , , , 
0.0176897, -0.0365911, 0.0197308, -0.0421302, 0.513, 83.4146347, 0.513, -1.097561, 0.513, 10.6097565, 0.0176897, -0.0099031, 0.0176897, 0.0236667, 0.0176897, -0.0330663, 0.0176897, -0.0387732, 0.0176897, -0.0057069, 0.0176897, -0.0223239, , , , , , , , , , , , , , , , , , , , , , 
0.0181552, -0.0307164, 0.02025, -0.012253, 0.5265, 107.9878082, 0.5265, 10.2439022, 0.5265, -14.5731707, 0.0181552, -0.0109102, 0.0181552, 0.0240024, 0.0181552, -0.0310521, 0.0181552, -0.0391089, 0.0181552, -0.005539, 0.0181552, -0.0377661, , , , , , , , , , , , , , , , , , , , , , 
0.0186207, -0.0258488, 0.0207692, 0.0011749, 0.54, 133.7195129, 0.54, 3.8414636, 0.54, -43.6585388, 0.0186207, -0.0115816, 0.0186207, 0.0253452, 0.0186207, -0.0292058, 0.0186207, -0.0357519, 0.0186207, -0.0048676, 0.0186207, -0.0592508, , , , , , , , , , , , , , , , , , , , , , 
0.0190862, -0.0240024, 0.0212885, -0.0028534, 0.5535, 168.8414612, 0.5535, -8.4756098, 0.5535, -72.1951218, 0.0190862, -0.0125887, 0.0190862, 0.0240024, 0.0190862, -0.0251774, 0.0190862, -0.0340734, 0.0190862, -0.0052033, 0.0190862, -0.0944991, , , , , , , , , , , , , , , , , , , , , , 
0.0195517, -0.0241703, 0.0218077, -0.0001678, 0.567, 203.5975647, 0.567, 29.6951218, 0.567, -100.3048782, 0.0195517, -0.012253, 0.0195517, 0.0226596, 0.0195517, -0.0203098, 0.0195517, -0.0344091, 0.0195517, -0.0052033, 0.0195517, -0.1243763, , , , , , , , , , , , , , , , , , , , , , 
0.0200172, -0.024506, 0.0223269, 0.0119173, 0.5805, 22.0731716, 0.5805, -101.1585388, 0.5805, 29.0853672, 0.0200172, -0.0095674, 0.0200172, 0.0229953, 0.0200172, -0.018967, 0.0200172, -0.030045, 0.0200172, -0.0035248, 0.0200172, -0.1163195, , , , , , , , , , , , , , , , , , , , , , 
0.0204828, -0.0250095, 0.0228462, 0.0196384, 0.594, 26.8902454, 0.594, -130.8536682, 0.594, -207.4390259, 0.0204828, -0.0058747, 0.0204828, 0.0226596, 0.0204828, -0.0236667, 0.0204828, -0.0223239, 0.0204828, -0.002182, 0.0204828, -0.054551, , , , , , , , , , , , , , , , , , , , , , 
0.0209483, -0.0243381, 0.0233654, 0.0209812, 0.6075, 68.7195129, 0.6075, 354.4512329, 0.6075, -290, 0.0209483, -0.0048676, 0.0209483, 0.0226596, 0.0209483, -0.0283665, 0.0209483, -0.0208133, 0.0209483, -0.0028534, 0.0209483, 0.0337377, , , , , , , , , , , , , , , , , , , , , , 
0.0214138, -0.0206455, 0.0238846, 0.026688, 0.621, 222.8048859, 0.621, 213.1707306, 0.621, -166.8292694, 0.0214138, -0.005539, 0.0214138, 0.0226596, 0.0214138, -0.0303807, 0.0214138, -0.0310521, 0.0214138, -0.0038605, 0.0214138, 0.087953, , , , , , , , , , , , , , , , , , , , , , 
0.0218793, -0.0169528, 0.0244038, 0.0320592, 0.6345, 305.2438965, 0.6345, -118.2926865, 0.6345, -86.5243912, 0.0218793, -0.0065461, 0.0218793, 0.0219883, 0.0218793, -0.0303807, 0.0218793, -0.0448157, 0.0218793, -0.0028534, 0.0218793, 0.0740215, , , , , , , , , , , , , , , , , , , , , , 
0.0223448, -0.0182956, 0.0249231, 0.0283665, 0.648, -27.3780499, 0.648, 173.1707306, 0.648, -57.3170738, 0.0223448, -0.0058747, 0.0223448, 0.0213169, 0.0223448, -0.0303807, 0.0223448, -0.0428016, 0.0223448, -0.0028534, 0.0223448, 0.002182, , , , , , , , , , , , , , , , , , , , , , 
0.0228103, -0.0246738, 0.0254423, 0.0169528, 0.6615, 1.402439, 0.6615, 61.341465, 0.6615, 51.9512215, 0.0228103, -0.0048676, 0.0228103, 0.0206455, 0.0228103, -0.0290379, 0.0228103, -0.0273594, 0.0228103, -0.0031891, 0.0228103, -0.0929885, , , , , , , , , , , , , , , , , , , , , , 
0.0232759, -0.0332341, 0.0259615, 0.0068818, 0.675, 148.1707306, 0.675, -79.2073212, 0.675, 39.2682953, 0.0232759, -0.005539, 0.0232759, 0.0204776, 0.0232759, -0.026688, 0.0232759, -0.0182956, 0.0232759, -0.0045319, 0.0232759, -0.163653, , , , , , , , , , , , , , , , , , , , , , 
0.0237414, -0.0377661, 0.0264808, -0.0010071, 0.6885, 236.9512177, 0.6885, -121.2195129, 0.6885, -74.1463394, 0.0237414, -0.0057069, 0.0237414, 0.0196384, 0.0237414, -0.0250095, 0.0237414, -0.018967, 0.0237414, -0.0048676, 0.0237414, -0.1567712, , , , , , , , , , , , , , , , , , , , , , 
0.0242069, -0.0357519, 0.027, -0.0068818, 0.702, 164.9390259, 0.702, -130.5487823, 0.702, -120.4878082, 0.0242069, -0.0048676, 0.0242069, 0.0199741, 0.0242069, -0.0236667, 0.0242069, -0.0236667, 0.0242069, -0.0046998, 0.0242069, -0.0626078, , , , , , , , , , , , , , , , , , , , , , 
0.0246724, -0.0307164, 0.0275192, -0.0095674, 0.7155, -3.1707318, 0.7155, -145.7926788, 0.7155, -22.439024, 0.0246724, -0.0030213, 0.0246724, 0.0219883, 0.0246724, -0.0238346, 0.0246724, -0.0276951, 0.0246724, -0.0048676, 0.0246724, 0.0508583, , , , , , , , , , , , , , , , , , , , , , 
0.0251379, -0.0283665, 0.0280385, -0.0092317, 0.729, 0.7317073, 0.729, -5.1829271, 0.729, 90.6707306, 0.0251379, -0.0036927, 0.0251379, 0.0218204, 0.0251379, -0.0273594, 0.0251379, -0.0360876, 0.0251379, -0.0048676, 0.0251379, 0.0965133, , , , , , , , , , , , , , , , , , , , , , 
0.0256034, -0.026688, 0.0285577, -0.0062104, 0.7425, 30.9146347, 0.7425, 106.4024429, 0.7425, 100.4268341, 0.0256034, -0.0068818, 0.0256034, 0.0193027, 0.0256034, -0.0323949, 0.0256034, -0.0527047, 0.0256034, -0.0048676, 0.0256034, 0.0595865, , , , , , , , , , , , , , , , , , , , , , 
0.026069, -0.0251774, 0.0290769, -0.0041962, 0.756, 89.9390259, 0.756, 154.3902435, 0.756, 76.7682953, 0.026069, -0.0082246, 0.026069, 0.0184634, 0.026069, -0.0407874, 0.026069, -0.0746929, 0.026069, -0.0048676, 0.026069, 0.0058747, , , , , , , , , , , , , , , , , , , , , , 
0.0265345, -0.0231632, 0.0295962, -0.0030213, 0.7695, 102.2561035, 0.7695, 167.1341553, 0.7695, 57.1951218, 0.0265345, -0.0058747, 0.0265345, 0.0193027, 0.0265345, -0.0508583, 0.0265345, -0.0914778, 0.0265345, -0.0058747, 0.0265345, -0.0149386, , , , , , , , , , , , , , , , , , , , , , 
0.027, -0.0236667, 0.0301154, -0.0018463, 0.783, 57.3780518, 0.783, 86.5243912, 0.783, 72.7439041, 0.027, -0.002182, 0.027, 0.0193027, 0.027, -0.0594186, 0.027, -0.0961776, 0.027, -0.0068818, 0.027, -0.0149386, , , , , , , , , , , , , , , , , , , , , , 
0.0274655, -0.0270237, 0.0306346, -0.0018463, 0.7965, 56.5243912, 0.7965, 74.5121994, 0.7965, 43.1707344, 0.0274655, -0.0015106, 0.0274655, 0.0176242, 0.0274655, -0.0619364, 0.0274655, -0.0931563, 0.0274655, -0.0045319, 0.0274655, -0.01561, , , , , , , , , , , , , , , , , , , , , , 
0.027931, -0.0290379, 0.0311538, -0.0045319, 0.81, 62.7439041, 0.81, 109.5121994, 0.81, 48.2317085, 0.027931, -0.003357, 0.027931, 0.0164492, 0.027931, -0.0574044, 0.027931, -0.0914778, 0.027931, -0.0023499, 0.027931, -0.0182956, , , , , , , , , , , , , , , , , , , , , , 
0.0283966, -0.0263523, 0.0316731, -0.0099031, 0.8235, -12.2560978, 0.8235, 124.8780518, 0.8235, 94.6341476, 0.0283966, -0.0058747, 0.0283966, 0.0159457, 0.0283966, -0.0525368, 0.0283966, -0.0914778, 0.0283966, -0.0028534, 0.0283966, -0.0095674, , , , , , , , , , , , , , , , , , , , , , 
0.0288621, -0.0250095, 0.0321923, -0.0176242, 0.837, 6.7073174, 0.837, -81.0975647, 0.837, 164.3902435, 0.0288621, -0.0068818, 0.0288621, 0.0152743, 0.0288621, -0.0491798, 0.0288621, -0.0861067, 0.0288621, -0.005539, 0.0288621, 0.0129244, , , , , , , , , , , , , , , , , , , , , , 
0.0293276, -0.0253452, 0.0327115, -0.0236667, 0.8505, 214.512207, 0.8505, -224.6341553, 0.8505, 187.8048859, 0.0293276, -0.0063783, 0.0293276, 0.0152743, 0.0293276, -0.0475013, 0.0293276, -0.0659648, 0.0293276, -0.0068818, 0.0293276, 0.030045, , , , , , , , , , , , , , , , , , , , , , 
0.0297931, -0.0246738, 0.0332308, -0.0260166, 0.864, 326.5853882, 0.864, -449.8780518, 0.864, 106.5853653, 0.0297931, -0.0058747, 0.0297931, 0.0166171, 0.0297931, -0.0458228, 0.0297931, -0.0198062, 0.0297931, -0.0068818, 0.0297931, 0.0293736, , , , , , , , , , , , , , , , , , , , , , 
0.0302586, -0.0223239, 0.03375, -0.0271916, 0.8775, 444.8780518, 0.8775, -542.0731812, 0.8775, -88.9634171, 0.0302586, -0.0075532, 0.0302586, 0.0171206, 0.0302586, -0.0407874, 0.0302586, 0.0421302, 0.0302586, -0.0068818, 0.0302586, 0.0213169, , , , , , , , , , , , , , , , , , , , , , 
0.0307241, -0.0203098, 0.0342692, -0.0273594, 0.891, 596.7683105, 0.891, -219.0853729, 0.891, -145.0609741, 0.0307241, -0.0075532, 0.0307241, 0.0172885, 0.0307241, -0.0337377, 0.0307241, 0.0810712, 0.0307241, -0.0058747, 0.0307241, 0.0167849, , , , , , , , , , , , , , , , , , , , , , 
0.0311897, -0.0196384, 0.0347885, -0.0273594, 0.9045, 694.3292847, 0.9045, -94.3292694, 0.9045, -114.5121994, 0.0311897, -0.0048676, 0.0311897, 0.0179599, 0.0311897, -0.0317235, 0.0311897, 0.0703288, 0.0311897, -0.0041962, 0.0311897, 0.0159457, , , , , , , , , , , , , , , , , , , , , , 
0.0316552, -0.0206455, 0.0353077, -0.0256809, 0.918, 524.2073364, 0.918, -80.1219559, 0.918, -147.5, 0.0316552, -0.0015106, 0.0316552, 0.0176242, 0.0316552, -0.0330663, 0.0316552, 0.0307164, 0.0316552, -0.0031891, 0.0316552, 0.0129244, , , , , , , , , , , , , , , , , , , , , , 
0.0321207, -0.0219883, 0.0358269, -0.0223239, 0.9315, 639.0853882, 0.9315, -85.2439041, 0.9315, -169.3902435, 0.0321207, 0.0005035, 0.0321207, 0.0167849, 0.0321207, -0.0310521, 0.0321207, -0.0099031, 0.0321207, -0.0025177, 0.0321207, 0.0092317, , , , , , , , , , , , , , , , , , , , , , 
0.0325862, -0.023331, 0.0363462, -0.0216526, 0.945, 702.5609741, 0.945, -167.6829376, 0.945, -167.1341553, 0.0325862, 0.0008392, 0.0325862, 0.0159457, 0.0325862, -0.0243381, 0.0325862, -0.0491798, 0.0325862, -0.0010071, 0.0325862, 0.0068818, , , , , , , , , , , , , , , , , , , , , , 
0.0330517, -0.0236667, 0.0368654, -0.0219883, 0.9585, 615.2438965, 0.9585, -140.2439117, 0.9585, -274.5731812, 0.0330517, 0.0005035, 0.0330517, 0.0169528, 0.0330517, -0.0169528, 0.0330517, -0.0750286, 0.0330517, -0.0001678, 0.0330517, 0.0023499, , , , , , , , , , , , , , , , , , , , , , 
0.0335172, -0.0238346, 0.0373846, -0.0204776, 0.972, 597.2561035, 0.972, -35.3658562, 0.972, -281.0975647, 0.0335172, -0.0011749, 0.0335172, 0.0172885, 0.0335172, -0.012253, 0.0335172, -0.0753643, 0.0335172, 0.0011749, 0.0335172, -0.0063783, , , , , , , , , , , , , , , , , , , , , , 
0.0339828, -0.023331, 0.0379038, -0.0209812, 0.9855, 326.0975647, 0.9855, 93.4756088, 0.9855, -189.4512177, 0.0339828, -0.0031891, 0.0339828, 0.0171206, 0.0339828, -0.0097353, 0.0339828, -0.0607614, 0.0339828, 0.0015106, 0.0339828, -0.0184634, , , , , , , , , , , , , , , , , , , , , , 
0.0344483, -0.0209812, 0.0384231, -0.0216526, 0.999, 172.9268341, 0.999, 88.3536606, 0.999, -30.1829281, 0.0344483, -0.0045319, 0.0344483, 0.0172885, 0.0344483, -0.010071, 0.0344483, -0.0532082, 0.0344483, 0.0005035, 0.0344483, -0.0317235, , , , , , , , , , , , , , , , , , , , , , 
0.0349138, -0.0179599, 0.0389423, -0.0216526, 1.0125, 183.5975647, 1.0125, 192.1341553, 1.0125, 61.8292694, 0.0349138, -0.0048676, 0.0349138, 0.0179599, 0.0349138, -0.0149386, 0.0349138, -0.0558938, 0.0349138, -0.0010071, 0.0349138, -0.0424659, , , , , , , , , , , , , , , , , , , , , , 
0.0353793, -0.0149386, 0.0394615, -0.0203098, 1.026, 55.9756126, 1.026, 104.7561035, 1.026, 112.1951218, 0.0353793, -0.0045319, 0.0353793, 0.0179599, 0.0353793, -0.0219883, 0.0353793, -0.054551, 0.0353793, -0.0008392, 0.0353793, -0.0572366, , , , , , , , , , , , , , , , , , , , , , 
0.0358448, -0.0129244, 0.0399808, -0.0159457, 1.0395, -47.7439041, 1.0395, 90.8536606, 1.0395, 105.7317123, 0.0358448, -0.0048676, 0.0358448, 0.0169528, 0.0358448, -0.0261845, 0.0358448, -0.0441444, 0.0358448, -0.0005035, 0.0358448, -0.0837568, , , , , , , , , , , , , , , , , , , , , , 
0.0363103, -0.0117494, 0.0405, -0.0099031, 1.053, -269.8170776, 1.053, 237.3170776, 1.053, 144.146347, 0.0363103, -0.0063783, 0.0363103, 0.0179599, 0.0363103, -0.0238346, 0.0363103, -0.0323949, 0.0363103, -0.0010071, 0.0363103, -0.1055772, , , , , , , , , , , , , , , , , , , , , , 
0.0367759, -0.0129244, 0.0410192, -0.0052033, 1.0665, -399.0244141, 1.0665, 181.7682953, 1.0665, 203.6585388, 0.0367759, -0.0062104, 0.0367759, 0.0191348, 0.0367759, -0.0169528, 0.0367759, -0.026688, 0.0367759, -0.0018463, 0.0367759, -0.1075914, , , , , , , , , , , , , , , , , , , , , , 
0.0372414, -0.0159457, 0.0415385, -0.0048676, 1.08, -630.7927246, 1.08, -26.280489, 1.08, 344.9390259, 0.0372414, -0.005539, 0.0372414, 0.0203098, 0.0372414, -0.0109102, 0.0372414, -0.0270237, 0.0372414, -0.0015106, 0.0372414, -0.1072557, , , , , , , , , , , , , , , , , , , , , , 
0.0377069, -0.0179599, 0.0420577, -0.0085603, 1.0935, -829.3902588, 1.0935, 72.1951218, 1.0935, 562.8048706, 0.0377069, -0.0062104, 0.0377069, 0.0203098, 0.0377069, -0.0070497, 0.0377069, -0.0298772, 0.0377069, -0.002182, 0.0377069, -0.13579, , , , , , , , , , , , , , , , , , , , , , 
0.0381724, -0.0203098, 0.0425769, -0.0152743, 1.107, -903.7805176, 1.107, 267.6219482, 1.107, 635.6097412, 0.0381724, -0.0068818, 0.0381724, 0.0209812, 0.0381724, -0.0075532, 0.0381724, -0.0317235, 0.0381724, -0.0028534, 0.0381724, -0.178088, , , , , , , , , , , , , , , , , , , , , , 
0.0386379, -0.0226596, 0.0430962, -0.012253, 1.1205, -1067.7438965, 1.1205, 184.5731812, 1.1205, 629.4512329, 0.0386379, -0.0083925, 0.0386379, 0.0213169, 0.0386379, -0.0105745, 0.0386379, -0.0317235, 0.0386379, -0.0030213, 0.0386379, -0.1834592, , , , , , , , , , , , , , , , , , , , , , 
0.0391034, -0.023331, 0.0436154, 0.0092317, 1.134, -1288.2316895, 1.134, 22.0731716, 1.134, 490.1219482, 0.0391034, -0.0090639, 0.0391034, 0.0219883, 0.0391034, -0.01561, 0.0391034, -0.0293736, 0.0391034, -0.0028534, 0.0391034, -0.1532464, , , , , , , , , , , , , , , , , , , , , , 
0.039569, -0.0236667, 0.0441346, 0.0236667, 1.1475, -1301.5244141, 1.1475, -150, 1.1475, 423.2926941, 0.039569, -0.0078889, 0.039569, 0.0214847, 0.039569, -0.0229953, 0.039569, -0.026688, 0.039569, -0.0015106, 0.039569, -0.1411612, , , , , , , , , , , , , , , , , , , , , , 
0.0400345, -0.023331, 0.0446538, -0.0018463, 1.161, -938.9024658, 1.161, 1113.5975342, 1.161, 424.3902588, 0.0400345, -0.0068818, 0.0400345, 0.0206455, 0.0400345, -0.0297093, 0.0400345, -0.0251774, 0.0400345, -0.0001678, 0.0400345, -0.1441825, , , , , , , , , , , , , , , , , , , , , , 
0.0405, -0.0209812, 0.0451731, -0.0428016, 1.1745, -681.8902588, 1.1745, 607.9268188, 1.1745, -582.3170776, 0.0405, -0.0063783, 0.0405, 0.018967, 0.0405, -0.0350805, 0.0405, -0.0238346, 0.0405, 0.0016785, 0.0405, -0.0985275, , , , , , , , , , , , , , , , , , , , , , 
0.0409655, -0.0196384, 0.0456923, -0.0626078, 1.188, -902.3780518, 1.188, -1284.512207, 1.188, -184.0853729, 0.0409655, -0.0035248, 0.0409655, 0.017792, 0.0409655, -0.0377661, 0.0409655, -0.018967, 0.0409655, 0.002182, 0.0409655, -0.0070497, , , , , , , , , , , , , , , , , , , , , , 
0.041431, -0.0219883, 0.0462115, -0.0696574, 1.2015, -646.8292847, 1.2015, -621.7073364, 1.2015, -382.7438965, 0.041431, -0.0008392, 0.041431, 0.0179599, 0.041431, -0.0397803, 0.041431, -0.0135958, 0.041431, -0.0001678, 0.041431, 0.0414588, , , , , , , , , , , , , , , , , , , , , , 
0.0418966, -0.0236667, 0.0467308, -0.0663005, 1.215, -909.6341553, 1.215, -613.3536987, 1.215, -113.5365906, 0.0418966, -0.0006714, 0.0418966, 0.0193027, 0.0418966, -0.0391089, 0.0418966, -0.0109102, 0.0418966, -0.0008392, 0.0418966, 0.0414588, , , , , , , , , , , , , , , , , , , , , , 
0.0423621, -0.023331, 0.04725, -0.0428016, 1.2285, -624.8780518, 1.2285, 795.975647, 1.2285, 57.5609779, 0.0423621, -0.002182, 0.0423621, 0.0199741, 0.0423621, -0.033402, 0.0423621, -0.0092317, 0.0423621, -0.0008392, 0.0423621, 0.0417945, , , , , , , , , , , , , , , , , , , , , , 
0.0428276, -0.024506, 0.0477692, -0.0115816, 1.242, -585.3658447, 1.242, 710.0609741, 1.242, -321.1585388, 0.0428276, -0.0045319, 0.0428276, 0.0191348, 0.0428276, -0.0238346, 0.0428276, -0.0062104, 0.0428276, -0.0015106, 0.0428276, 0.0381018, , , , , , , , , , , , , , , , , , , , , , 
0.0432931, -0.0287022, 0.0482885, -0.0041962, 1.2555, -266.4024353, 1.2555, -732.4390259, 1.2555, -269.3902588, 0.0432931, -0.0062104, 0.0432931, 0.0184634, 0.0432931, -0.0146029, 0.0432931, -0.0031891, 0.0432931, -0.0005035, 0.0432931, 0.0092317, , , , , , , , , , , , , , , , , , , , , , 
0.0437586, -0.0323949, 0.0488077, -0.0142672, 1.269, -191.5243988, 1.269, -469.4512329, 1.269, -244.6341553, 0.0437586, -0.0068818, 0.0437586, 0.0179599, 0.0437586, -0.0092317, 0.0437586, 0.0011749, 0.0437586, 0.0015106, 0.0437586, -0.0179599, , , , , , , , , , , , , , , , , , , , , , 
0.0442241, -0.0317235, 0.0493269, -0.018967, 1.2825, 116.0975647, 1.2825, -593.3536987, 1.2825, -293.6585388, 0.0442241, -0.0060426, 0.0442241, 0.0179599, 0.0442241, -0.0070497, 0.0442241, 0.0045319, 0.0442241, 0.0031891, 0.0442241, -0.0117494, , , , , , , , , , , , , , , , , , , , , , 
0.0446897, -0.0256809, 0.0498462, -0.0146029, 1.296, 211.8902435, 1.296, -735.4268188, 1.296, -278.5365906, 0.0446897, -0.005539, 0.0446897, 0.0186313, 0.0446897, -0.0050355, 0.0446897, 0.0035248, 0.0446897, 0.0031891, 0.0446897, 0.0179599, , , , , , , , , , , , , , , , , , , , , , 
0.0451552, -0.0176242, 0.0503654, -0.0075532, 1.3095, 164.0243988, 1.3095, -872.012207, 1.3095, -190.3048859, 0.0451552, -0.0050355, 0.0451552, 0.0199741, 0.0451552, -0.0040284, 0.0451552, 0.0045319, 0.0451552, 0.0030213, 0.0451552, 0.0488441, , , , , , , , , , , , , , , , , , , , , , 
0.0456207, -0.0119173, 0.0508846, -0.0011749, 1.323, 70.7926865, 1.323, -783.4146729, 1.323, -177.9268341, 0.0456207, -0.0041962, 0.0456207, 0.0194705, 0.0456207, -0.0048676, 0.0456207, 0.002182, 0.0456207, 0.0025177, 0.0456207, 0.0827497, , , , , , , , , , , , , , , , , , , , , , 
0.0460862, -0.0095674, 0.0514038, -0.0008392, 1.3365, 94.7561035, 1.3365, -278.5975647, 1.3365, -193.2317047, 0.0460862, -0.0048676, 0.0460862, 0.0191348, 0.0460862, -0.0075532, 0.0460862, -0.0139315, 0.0460862, 0.0028534, 0.0460862, 0.1089342, , , , , , , , , , , , , , , , , , , , , , 
0.0465517, -0.0109102, 0.0519231, -0.0025177, 1.35, -4.2682929, 1.35, -118.3536606, 1.35, -175, 0.0465517, -0.005539, 0.0465517, 0.0186313, 0.0465517, -0.011078, 0.0465517, -0.0370947, 0.0465517, 0.0025177, 0.0465517, 0.1117876, , , , , , , , , , , , , , , , , , , , , , 
0.0470172, -0.0119173, 0.0524423, -0.0023499, 1.3635, 2.5609756, 1.3635, 215.3048859, 1.3635, -182.0121918, 0.0470172, -0.005539, 0.0470172, 0.0182956, 0.0470172, -0.0135958, 0.0470172, -0.0448157, 0.0470172, 0.0008392, 0.0470172, 0.0908064, , , , , , , , , , , , , , , , , , , , , , 
0.0474828, -0.0129244, 0.0529615, -0.0035248, 1.377, -5.2439027, 1.377, 90.9756088, 1.377, -178.0487823, 0.0474828, -0.0045319, 0.0474828, 0.0186313, 0.0474828, -0.0152743, 0.0474828, -0.0337377, 0.0474828, -0.0025177, 0.0474828, 0.0636149, , , , , , , , , , , , , , , , , , , , , , 
0.0479483, -0.0149386, 0.0534808, -0.0023499, 1.3905, -20.9146347, 1.3905, -0.4268293, 1.3905, -169.146347, 0.0479483, -0.0041962, 0.0479483, 0.0186313, 0.0479483, -0.0171206, 0.0479483, -0.023331, 0.0479483, -0.005539, 0.0479483, 0.0542153, , , , , , , , , , , , , , , , , , , , , , 
0.0484138, -0.0149386, 0.054, -0.0001678, 1.404, -27.0731716, 1.404, 10.6097565, 1.404, -176.8902435, 0.0484138, -0.0035248, 0.0484138, 0.0172885, 0.0484138, -0.0176242, 0.0484138, -0.0318914, 0.0484138, -0.0068818, 0.0484138, 0.0696574, , , , , , , , , , , , , , , , , , , , , , 
0.0488793, -0.0132601, 0.0545192, 0.0028534, 1.4175, -30.7317085, 1.4175, -41.9512215, 1.4175, -211.7073212, 0.0488793, -0.0025177, 0.0488793, 0.0179599, 0.0488793, -0.0171206, 0.0488793, -0.0491798, 0.0488793, -0.0058747, 0.0488793, 0.0874495, , , , , , , , , , , , , , , , , , , , , , 
0.0493448, -0.0112459, 0.0550385, 0.0052033, 1.431, 37.6829262, 1.431, -83.3536606, 1.431, -212.6829376, 0.0493448, -0.0015106, 0.0493448, 0.0186313, 0.0493448, -0.0171206, 0.0493448, -0.0532082, 0.0493448, -0.0057069, 0.0493448, 0.085771, , , , , , , , , , , , , , , , , , , , , , 
0.0498103, -0.0115816, 0.0555577, 0.0057069, 1.4445, 120.7317123, 1.4445, -70.5487823, 1.4445, -164.7561035, 0.0498103, -0.002182, 0.0498103, 0.018967, 0.0498103, -0.0176242, 0.0498103, -0.0475013, 0.0498103, -0.0068818, 0.0498103, 0.072343, , , , , , , , , , , , , , , , , , , , , , 
0.0502759, -0.0142672, 0.0560769, 0.0038605, 1.458, 87.3170776, 1.458, -145.6707306, 1.458, -156.7073212, 0.0502759, -0.0031891, 0.0502759, 0.0182956, 0.0502759, -0.0182956, 0.0502759, -0.0468299, 0.0502759, -0.0075532, 0.0502759, 0.0574044, , , , , , , , , , , , , , , , , , , , , , 
0.0507414, -0.0162814, 0.0565962, -0.0001678, 1.4715, 83.4756088, 1.4715, -210.9756165, 1.4715, -184.2682953, 0.0507414, -0.0045319, 0.0507414, 0.0179599, 0.0507414, -0.0193027, 0.0507414, -0.0522011, 0.0507414, -0.0078889, 0.0507414, 0.0464942, , , , , , , , , , , , , , , , , , , , , , 
0.0512069, -0.0135958, 0.0571154, -0.0041962, 1.485, 84.0243912, 1.485, -212.86586, 1.485, -212.86586, 0.0512069, -0.0052033, 0.0512069, 0.0179599, 0.0512069, -0.0209812, 0.0512069, -0.0565652, 0.0512069, -0.0082246, 0.0512069, 0.0428016, , , , , , , , , , , , , , , , , , , , , , 
0.0516724, -0.0095674, 0.0576346, -0.0078889, 1.4985, 29.3292694, 1.4985, -251.1585388, 1.4985, -209.8170776, 0.0516724, -0.0038605, 0.0516724, 0.0182956, 0.0516724, -0.023331, 0.0516724, -0.0632792, 0.0516724, -0.0095674, 0.0516724, 0.0454871, , , , , , , , , , , , , , , , , , , , , , 
0.0521379, -0.0082246, 0.0581538, -0.0109102, 1.512, 103.3536606, 1.512, -201.4634247, 1.512, -197.6219482, 0.0521379, -0.0035248, 0.0521379, 0.0186313, 0.0521379, -0.0271916, 0.0521379, -0.0746929, 0.0521379, -0.0104067, 0.0521379, 0.0491798, , , , , , , , , , , , , , , , , , , , , , 
0.0526034, -0.0068818, 0.0586731, -0.0127565, 1.5255, 87.5609741, 1.5255, -160.3048859, 1.5255, -168.2926941, 0.0526034, -0.0028534, 0.0526034, 0.0186313, 0.0526034, -0.0364233, 0.0526034, -0.0847639, 0.0526034, -0.0095674, 0.0526034, 0.0454871, , , , , , , , , , , , , , , , , , , , , , 
0.053069, -0.0057069, 0.0591923, -0.0109102, 1.539, 122.1951218, 1.539, -99.6951218, 1.539, -115.2439041, 0.053069, -0.0028534, 0.053069, 0.017792, 0.053069, -0.0451514, 0.053069, -0.0894636, 0.053069, -0.0077211, 0.053069, 0.030045, , , , , , , , , , , , , , , , , , , , , , 
0.0535345, -0.0050355, 0.0597115, -0.0058747, 1.5525, 133.4146423, 1.5525, -9.5121956, 1.5525, -147.9878082, 0.0535345, -0.0028534, 0.0535345, 0.0169528, 0.0535345, -0.0471656, 0.0535345, -0.0866102, 0.0535345, -0.0082246, 0.0535345, 0.0083925, , , , , , , , , , , , , , , , , , , , , , 
0.054, -0.0038605, 0.0602308, -0.0052033, 1.566, 49.0243912, 1.566, -89.3292694, 1.566, -167.1341553, 0.054, 0.0006714, 0.054, 0.0159457, 0.054, -0.040116, 0.054, -0.0746929, 0.054, -0.008896, 0.054, -0.0072175, , , , , , , , , , , , , , , , , , , , , , 
0.0544655, -0.0031891, 0.06075, -0.0082246, 1.5795, 27.5, 1.5795, -136.3414612, 1.5795, -147.2561035, 0.0544655, 0.0038605, 0.0544655, 0.0166171, 0.0544655, -0.0290379, 0.0544655, -0.0493477, 0.0544655, -0.0082246, 0.0544655, -0.0083925, , , , , , , , , , , , , , , , , , , , , , 
0.054931, -0.0045319, 0.0612692, -0.0070497, 1.593, 55.1219521, 1.593, -156.3414612, 1.593, -120.18293, 0.054931, 0.0045319, 0.054931, 0.0179599, 0.054931, -0.018967, 0.054931, -0.0146029, 0.054931, -0.0082246, 0.054931, -0.0038605, , , , , , , , , , , , , , , , , , , , , , 
0.0553966, -0.0048676, 0.0617885, -0.0065461, 1.6065, 83.7804871, 1.6065, -94.0243912, 1.6065, -101.8292694, 0.0553966, 0.0036927, 0.0553966, 0.0184634, 0.0553966, -0.011078, 0.0553966, 0.0193027, 0.0553966, -0.0072175, 0.0553966, -0.002182, , , , , , , , , , , , , , , , , , , , , , 
0.0558621, -0.0075532, 0.0623077, -0.008896, 1.62, 78.2317123, 1.62, -47.8658562, 1.62, -92.5609741, 0.0558621, 0.0018463, 0.0558621, 0.0182956, 0.0558621, -0.005539, 0.0558621, 0.042298, 0.0558621, -0.0062104, 0.0558621, -0.0035248, , , , , , , , , , , , , , , , , , , , , , 
0.0563276, -0.0102388, 0.0628269, -0.0109102, 1.6335, 78.6585388, 1.6335, -21.5853672, 1.6335, -102.5, 0.0563276, -0.0008392, 0.0563276, 0.0179599, 0.0563276, -0.0028534, 0.0563276, 0.0522011, 0.0563276, -0.0058747, 0.0563276, -0.0075532, , , , , , , , , , , , , , , , , , , , , , 
0.0567931, -0.0109102, 0.0633462, -0.0109102, 1.647, 89.8780518, 1.647, 49.3902435, 1.647, -94.146347, 0.0567931, -0.0031891, 0.0567931, 0.0184634, 0.0567931, -0.0062104, 0.0567931, 0.0421302, 0.0567931, -0.0048676, 0.0567931, -0.0166171, , , , , , , , , , , , , , , , , , , , , , 
0.0572586, -0.0102388, 0.0638654, -0.0109102, 1.6605, 94.6341476, 1.6605, 69.6341476, 1.6605, -69.7560959, 0.0572586, -0.0052033, 0.0572586, 0.0184634, 0.0572586, -0.014435, 0.0572586, 0.0172885, 0.0572586, -0.0052033, 0.0572586, -0.0303807, , , , , , , , , , , , , , , , , , , , , , 
0.0577241, -0.008896, 0.0643846, -0.0109102, 1.674, 99.2073212, 1.674, 21.9512196, 1.674, -58.0487823, 0.0577241, -0.0068818, 0.0577241, 0.0186313, 0.0577241, -0.0213169, 0.0577241, -0.0095674, 0.0577241, -0.0062104, 0.0577241, -0.0438087, , , , , , , , , , , , , , , , , , , , , , 
0.0581897, -0.0082246, 0.0649038, -0.0095674, 1.6875, 119.5121994, 1.6875, 19.7560978, 1.6875, -68.5975647, 0.0581897, -0.0090639, 0.0581897, 0.018967, 0.0581897, -0.0240024, 0.0581897, -0.0229953, 0.0581897, -0.0068818, 0.0581897, -0.0525368, , , , , , , , , , , , , , , , , , , , , , 
0.0586552, -0.0097353, 0.0654231, -0.0072175, 1.701, 127.5, 1.701, 92.2561035, 1.701, -77.3170776, 0.0586552, -0.0095674, 0.0586552, 0.0186313, 0.0586552, -0.0248417, 0.0586552, -0.023331, 0.0586552, -0.0058747, 0.0586552, -0.0548867, , , , , , , , , , , , , , , , , , , , , , 
0.0591207, -0.0102388, 0.0659423, -0.0099031, 1.7145, 128.1707306, 1.7145, 70, 1.7145, -67.4390259, 0.0591207, -0.0072175, 0.0591207, 0.0172885, 0.0591207, -0.0243381, 0.0591207, -0.0172885, 0.0591207, -0.0052033, 0.0591207, -0.0542153, , , , , , , , , , , , , , , , , , , , , , 
0.0595862, -0.0085603, 0.0664615, -0.0135958, 1.728, 145.7317047, 1.728, -55.9146347, 1.728, -55.1219521, 0.0595862, -0.0057069, 0.0595862, 0.0164492, 0.0595862, -0.0243381, 0.0595862, -0.0041962, 0.0595862, -0.0058747, 0.0595862, -0.0548867, , , , , , , , , , , , , , , , , , , , , , 
0.0600517, -0.0082246, 0.0669808, -0.0142672, 1.7415, 147.1341553, 1.7415, -109.0243912, 1.7415, -50.1219521, 0.0600517, -0.0062104, 0.0600517, 0.0179599, 0.0600517, -0.0236667, 0.0600517, 0.0146029, 0.0600517, -0.005539, 0.0600517, -0.0575723, , , , , , , , , , , , , , , , , , , , , , 
0.0605172, -0.0109102, 0.0675, -0.0117494, 1.755, 145.8536682, 1.755, -110.4268341, 1.755, -48.841465, 0.0605172, -0.0070497, 0.0605172, 0.0186313, 0.0605172, -0.0260166, 0.0605172, 0.0253452, 0.0605172, -0.0038605, 0.0605172, -0.0595865, , , , , , , , , , , , , , , , , , , , , , 
0.0609828, -0.0142672, 0.0680192, -0.008896, 1.7685, 150.5487823, 1.7685, -90.8536606, 1.7685, -50.7317085, 0.0609828, -0.0062104, 0.0609828, 0.017792, 0.0609828, -0.0340734, 0.0609828, 0.0203098, 0.0609828, -0.0028534, 0.0609828, -0.0599222, , , , , , , , , , , , , , , , , , , , , , 
0.0614483, -0.01561, 0.0685385, -0.0085603, 1.782, 159.2073212, 1.782, -66.1585388, 1.782, -55.8536606, 0.0614483, -0.0048676, 0.0614483, 0.0171206, 0.0614483, -0.04448, 0.0614483, 0.0078889, 0.0614483, -0.0028534, 0.0614483, -0.0582437, , , , , , , , , , , , , , , , , , , , , , 
0.0619138, -0.0142672, 0.0690577, -0.0062104, 1.7955, 160.5487823, 1.7955, -42.0731735, 1.7955, -55.4268303, 0.0619138, -0.005539, 0.0619138, 0.0166171, 0.0619138, -0.054551, 0.0619138, -0.002182, 0.0619138, -0.0025177, 0.0619138, -0.054551, , , , , , , , , , , , , , , , , , , , , , 
0.0623793, -0.0112459, 0.0695769, -0.0036927, 1.809, 151.5853729, 1.809, -26.280489, 1.809, -48.4146347, 0.0623793, -0.0068818, 0.0623793, 0.0172885, 0.0623793, -0.0652934, 0.0623793, -0.0125887, 0.0623793, -0.0011749, 0.0623793, -0.0493477, , , , , , , , , , , , , , , , , , , , , , 
0.0628448, -0.0070497, 0.0700962, -0.0057069, 1.8225, 145.0609741, 1.8225, -23.2926826, 1.8225, -41.0365868, 0.0628448, -0.0075532, 0.0628448, 0.0179599, 0.0628448, -0.0763714, 0.0628448, -0.0209812, 0.0628448, -0.0011749, 0.0628448, -0.0475013, , , , , , , , , , , , , , , , , , , , , , 
0.0633103, -0.0062104, 0.0706154, -0.0082246, 1.836, 136.9512177, 1.836, -20.1219521, 1.836, -25.4268303, 0.0633103, -0.0075532, 0.0633103, 0.0172885, 0.0633103, -0.0839246, 0.0633103, -0.0251774, 0.0633103, -0.0015106, 0.0633103, -0.0501869, , , , , , , , , , , , , , , , , , , , , , 
0.0637759, -0.0085603, 0.0711346, -0.0073854, 1.8495, 120, 1.8495, -45.9146347, 1.8495, -0.0609756, 0.0637759, -0.0070497, 0.0637759, 0.0151064, 0.0637759, -0.0862745, 0.0637759, -0.0276951, 0.0637759, -0.0015106, 0.0637759, -0.0515297, , , , , , , , , , , , , , , , , , , , , , 
0.0642414, -0.0109102, 0.0716538, -0.0075532, 1.863, 100.7317123, 1.863, -100.0609818, 1.863, 22.1341476, 0.0642414, -0.0082246, 0.0642414, 0.0152743, 0.0642414, -0.0867781, 0.0642414, -0.0323949, 0.0642414, -0.0023499, 0.0642414, -0.0505226, , , , , , , , , , , , , , , , , , , , , , 
0.0647069, -0.0115816, 0.0721731, -0.0092317, 1.8765, 84.9390259, 1.8765, -133.8414612, 1.8765, 30.4878063, 0.0647069, -0.0082246, 0.0647069, 0.0179599, 0.0647069, -0.0884565, 0.0647069, -0.0370947, 0.0647069, -0.0023499, 0.0647069, -0.0485084, , , , , , , , , , , , , , , , , , , , , , 
0.0651724, -0.0102388, 0.0726923, -0.0095674, 1.89, 74.4512177, 1.89, -135.9146423, 1.89, 17.2560978, 0.0651724, -0.0062104, 0.0651724, 0.0182956, 0.0651724, -0.0871138, 0.0651724, -0.0384375, 0.0651724, -0.0006714, 0.0651724, -0.0451514, , , , , , , , , , , , , , , , , , , , , , 
0.0656379, -0.0075532, 0.0732115, -0.0095674, 1.9035, 57.1341476, 1.9035, -131.7073212, 1.9035, 11.1585369, 0.0656379, -0.0041962, 0.0656379, 0.0166171, 0.0656379, -0.0797284, 0.0656379, -0.0364233, 0.0656379, 0.0011749, 0.0656379, -0.0431373, , , , , , , , , , , , , , , , , , , , , , 
0.0661034, -0.0036927, 0.0737308, -0.0099031, 1.917, 42.8048782, 1.917, -79.2073212, 1.917, 26.7073174, 0.0661034, -0.0041962, 0.0661034, 0.0159457, 0.0661034, -0.0679789, 0.0661034, -0.0365911, 0.0661034, 0.002182, 0.0661034, -0.0448157, , , , , , , , , , , , , , , , , , , , , , 
0.066569, -0.0031891, 0.07425, -0.0115816, 1.9305, 3.1707318, 1.9305, -19.3902435, 1.9305, 50.8536606, 0.066569, -0.0045319, 0.066569, 0.0166171, 0.066569, -0.057908, 0.066569, -0.0411231, 0.066569, 0.0015106, 0.066569, -0.0464942, , , , , , , , , , , , , , , , , , , , , , 
0.0670345, -0.0082246, 0.0747692, -0.0109102, 1.944, -26.4634151, 1.944, -13.4146347, 1.944, 48.5365868, 0.0670345, -0.0050355, 0.0670345, 0.0169528, 0.0670345, -0.0515297, 0.0670345, -0.0438087, 0.0670345, -0.0008392, 0.0670345, -0.0485084, , , , , , , , , , , , , , , , , , , , , , 
0.0675, -0.0176242, 0.0752885, -0.0105745, 1.9575, -136.3414612, 1.9575, -45.7926826, 1.9575, 13.5975609, 0.0675, -0.0043641, 0.0675, 0.0166171, 0.0675, -0.0454871, 0.0675, -0.0404517, 0.0675, -0.0025177, 0.0675, -0.0515297, , , , , , , , , , , , , , , , , , , , , , 
0.0679655, -0.0256809, 0.0758077, -0.0119173, 1.971, -192.86586, 1.971, -164.0243988, 1.971, -45.8536606, 0.0679655, -0.002182, 0.0679655, 0.018967, 0.0679655, -0.0374304, 0.0679655, -0.0350805, 0.0679655, -0.0018463, 0.0679655, -0.0532082, , , , , , , , , , , , , , , , , , , , , , 
0.068431, -0.0276951, 0.0763269, -0.0129244, 1.9845, 30.6097565, 1.9845, -1.5243902, 1.9845, -82.68293, 0.068431, -0.0001678, 0.068431, 0.0206455, 0.068431, -0.0307164, 0.068431, -0.0310521, 0.068431, -0.002182, 0.068431, -0.051194, , , , , , , , , , , , , , , , , , , , , , 
0.0688966, -0.0256809, 0.0768462, -0.0135958, 1.998, 117.9878082, 1.998, 415.3658752, 1.998, 36.4024391, 0.0688966, -0.0008392, 0.0688966, 0.0213169, 0.0688966, -0.0283665, 0.0688966, -0.0287022, 0.0688966, -0.0025177, 0.0688966, -0.0475013, , , , , , , , , , , , , , , , , , , , , , 
0.0693621, -0.0229953, 0.0773654, -0.0130922, 2.0115, 40.4268303, 2.0115, -265.1219482, 2.0115, 39.6341476, 0.0693621, -0.0016785, 0.0693621, 0.0216526, 0.0693621, -0.0263523, 0.0693621, -0.0290379, 0.0693621, -0.002182, 0.0693621, -0.0424659, , , , , , , , , , , , , , , , , , , , , , 
0.0698276, -0.0196384, 0.0778846, -0.0130922, 2.025, -44.8780479, 2.025, -315.7926941, 2.025, -48.1707344, 0.0698276, -0.0031891, 0.0698276, 0.0213169, 0.0698276, -0.0240024, 0.0698276, -0.0313878, 0.0698276, -0.0008392, 0.0698276, -0.0369268, , , , , , , , , , , , , , , , , , , , , , 
0.0702931, -0.0102388, 0.0784038, -0.0139315, 2.0385, -111.0975647, 2.0385, -89.6951218, 2.0385, -62.1951218, 0.0702931, -0.0048676, 0.0702931, 0.0213169, 0.0702931, -0.0236667, 0.0702931, -0.0340734, 0.0702931, -0.0015106, 0.0702931, -0.0293736, , , , , , , , , , , , , , , , , , , , , , 
0.0707586, 0.0038605, 0.0789231, -0.0142672, 2.052, -30.7926846, 2.052, -111.4024429, 2.052, 7.4390244, 0.0707586, -0.0052033, 0.0707586, 0.0213169, 0.0707586, -0.0226596, 0.0707586, -0.0365911, 0.0707586, -0.0030213, 0.0707586, -0.0206455, , , , , , , , , , , , , , , , , , , , , , 
0.0712241, 0.0092317, 0.0794423, -0.0135958, 2.0655, 72.3170776, 2.0655, -40.9756088, 2.0655, 1.8902439, 0.0712241, -0.0041962, 0.0712241, 0.0214847, 0.0712241, -0.0203098, 0.0712241, -0.0377661, 0.0712241, -0.0038605, 0.0712241, -0.0229953, , , , , , , , , , , , , , , , , , , , , , 
0.0716897, -0.0008392, 0.0799615, -0.012253, 2.079, -2.6829269, 2.079, 32.3780479, 2.079, 4.0853658, 0.0716897, -0.0031891, 0.0716897, 0.0223239, 0.0716897, -0.0186313, 0.0716897, -0.0384375, 0.0716897, -0.0023499, 0.0716897, -0.0424659, , , , , , , , , , , , , , , , , , , , , , 
0.0721552, -0.0191348, 0.0804808, -0.0095674, 2.0925, 5.5487804, 2.0925, 20.4268303, 2.0925, -3.9634147, 0.0721552, -0.0031891, 0.0721552, 0.023331, 0.0721552, -0.0206455, 0.0721552, -0.0377661, 0.0721552, -0.0015106, 0.0721552, -0.0664683, , , , , , , , , , , , , , , , , , , , , , 
0.0726207, -0.0323949, 0.081, -0.0052033, 2.106, -11.341464, 2.106, -29.8780499, 2.106, -7.1341467, 0.0726207, -0.0030213, 0.0726207, 0.0226596, 0.0726207, -0.0240024, 0.0726207, -0.0377661, 0.0726207, -0.0031891, 0.0726207, -0.0807355, , , , , , , , , , , , , , , , , , , , , , 
0.0730862, -0.0323949, 0.0815192, -0.0046998, 2.1195, -14.3902445, 2.1195, -39.0243912, 2.1195, -10.1219511, 0.0730862, -0.0030213, 0.0730862, 0.0206455, 0.0730862, -0.0273594, 0.0730862, -0.0384375, 0.0730862, -0.0045319, 0.0730862, -0.0767071, , , , , , , , , , , , , , , , , , , , , , 
0.0735517, -0.0223239, 0.0820385, -0.0087282, 2.133, -10.5487804, 2.133, -39.5121956, 2.133, -10.7317076, 0.0735517, -0.0025177, 0.0735517, 0.0193027, 0.0735517, -0.0310521, 0.0735517, -0.0374304, 0.0735517, -0.0052033, 0.0735517, -0.0532082, , , , , , , , , , , , , , , , , , , , , , 
0.0740172, -0.0109102, 0.0825577, -0.0125887, 2.1465, 7.7439027, 2.1465, -48.5975609, 2.1465, 0.1219512, 0.0740172, -0.0015106, 0.0740172, 0.0199741, 0.0740172, -0.0318914, 0.0740172, -0.0352483, 0.0740172, -0.0048676, 0.0740172, -0.0317235, , , , , , , , , , , , , , , , , , , , , , 
0.0744828, -0.0028534, 0.0830769, -0.0135958, 2.16, 0.4268293, 2.16, -53.3536606, 2.16, 1.7073171, 0.0744828, -0.0001678, 0.0744828, 0.0209812, 0.0744828, -0.0283665, 0.0744828, -0.0339055, 0.0744828, -0.0043641, 0.0744828, -0.0290379, , , , , , , , , , , , , , , , , , , , , , 
0.0749483, -0.0011749, 0.0835962, -0.0152743, 2.1735, -4.0853658, 2.1735, -58.841465, 2.1735, -3.0487804, 0.0749483, 0.0018463, 0.0749483, 0.0219883, 0.0749483, -0.0209812, 0.0749483, -0.0360876, 0.0749483, -0.0057069, 0.0749483, -0.0340734, , , , , , , , , , , , , , , , , , , , , , 
0.0754138, -0.0040284, 0.0841154, -0.0196384, 2.187, 0.4878049, 2.187, -38.2926826, 2.187, -7.3170733, 0.0754138, 0.0015106, 0.0754138, 0.0206455, 0.0754138, -0.0112459, 0.0754138, -0.043473, 0.0754138, -0.0058747, 0.0754138, -0.0276951, , , , , , , , , , , , , , , , , , , , , , 
0.0758793, -0.0087282, 0.0846346, -0.0219883, 2.2005, 1.0365853, 2.2005, -0.6097561, 2.2005, -11.341464, 0.0758793, -0.0005035, 0.0758793, 0.0199741, 0.0758793, -0.0015106, 0.0758793, -0.051194, 0.0758793, -0.0046998, 0.0758793, -0.01561, , , , , , , , , , , , , , , , , , , , , , 
0.0763448, -0.0135958, 0.0851538, -0.023331, 2.214, 6.4024391, 2.214, 13.3536587, 2.214, -11.219512, 0.0763448, -0.0016785, 0.0763448, 0.0203098, 0.0763448, 0.0035248, 0.0763448, -0.0532082, 0.0763448, -0.0045319, 0.0763448, -0.0162814, , , , , , , , , , , , , , , , , , , , , , 
0.0768103, -0.0162814, 0.0856731, -0.0238346, 2.2275, 7.0731707, 2.2275, -15.8536587, 2.2275, -8.841464, 0.0768103, -0.0018463, 0.0768103, 0.0199741, 0.0768103, 0.0052033, 0.0768103, -0.0505226, 0.0768103, -0.0050355, 0.0768103, -0.0290379, , , , , , , , , , , , , , , , , , , , , , 
0.0772759, -0.0176242, 0.0861923, -0.0226596, 2.241, 4.5731707, 2.241, -53.3536606, 2.241, -7.8658538, 0.0772759, -0.0036927, 0.0772759, 0.0182956, 0.0772759, 0.0030213, 0.0772759, -0.0481727, 0.0772759, -0.0052033, 0.0772759, -0.04448, , , , , , , , , , , , , , , , , , , , , , 
0.0777414, -0.0179599, 0.0867115, -0.018967, 2.2545, 2.1341465, 2.2545, -59.8170738, 2.2545, -8.5975609, 0.0777414, -0.0057069, 0.0777414, 0.0176242, 0.0777414, -0.0011749, 0.0777414, -0.0498512, 0.0777414, -0.0041962, 0.0777414, -0.0626078, , , , , , , , , , , , , , , , , , , , , , 
0.0782069, -0.0179599, 0.0872308, -0.0166171, 2.268, 5.670732, 2.268, -35.1829262, 2.268, -9.6341467, 0.0782069, -0.0065461, 0.0782069, 0.0179599, 0.0782069, -0.0057069, 0.0782069, -0.0548867, 0.0782069, -0.0028534, 0.0782069, -0.0733501, , , , , , , , , , , , , , , , , , , , , , 
0.0786724, -0.0139315, 0.08775, -0.0196384, 2.2815, 5.9146342, 2.2815, -10.4268293, 2.2815, -8.841464, 0.0786724, -0.0068818, 0.0786724, 0.0186313, 0.0786724, -0.0097353, 0.0786724, -0.0558938, 0.0786724, -0.0015106, 0.0786724, -0.0592508, , , , , , , , , , , , , , , , , , , , , , 
0.0791379, -0.0075532, 0.0882692, -0.0223239, 2.295, 5.9146342, 2.295, 3.5365853, 2.295, -8.6585369, 0.0791379, -0.0082246, 0.0791379, 0.0182956, 0.0791379, -0.0157778, 0.0791379, -0.0471656, 0.0791379, -0.0001678, 0.0791379, -0.0323949, , , , , , , , , , , , , , , , , , , , , , 
0.0796034, -0.0062104, 0.0887885, -0.0243381, 2.3085, 7.2560978, 2.3085, 7.7439027, 2.3085, -9.0853662, 0.0796034, -0.0095674, 0.0796034, 0.0186313, 0.0796034, -0.0196384, 0.0796034, -0.0350805, 0.0796034, -0.0015106, 0.0796034, -0.0095674, , , , , , , , , , , , , , , , , , , , , , 
0.080069, -0.0140993, 0.0893077, -0.0273594, 2.322, 7.4390244, 2.322, 6.3414636, 2.322, -8.5365858, 0.080069, -0.0092317, 0.080069, 0.0206455, 0.080069, -0.0169528, 0.080069, -0.0283665, 0.080069, -0.0028534, 0.080069, -0.0030213, , , , , , , , , , , , , , , , , , , , , , 
0.0805345, -0.0243381, 0.0898269, -0.0276951, 2.3355, 6.0365853, 2.3355, -4.0853658, 2.3355, -6.3414636, 0.0805345, -0.0082246, 0.0805345, 0.0218204, 0.0805345, -0.012253, 0.0805345, -0.0323949, 0.0805345, -0.0031891, 0.0805345, -0.0162814, , , , , , , , , , , , , , , , , , , , , , 
0.081, -0.0287022, 0.0903462, -0.0253452, 2.349, 3.4756098, 2.349, -11.4634151, 2.349, -4.390244, 0.081, -0.0082246, 0.081, 0.0231632, 0.081, -0.0115816, 0.081, -0.0377661, 0.081, -0.0025177, 0.081, -0.038941, , , , , , , , , , , , , , , , , , , , , , 
0.0814655, -0.0229953, 0.0908654, -0.0176242, 2.3625, 4.5121951, 2.3625, -11.0975609, 2.3625, -4.2682929, 0.0814655, -0.0072175, 0.0814655, 0.0260166, 0.0814655, -0.0117494, 0.0814655, -0.0297093, 0.0814655, -0.0018463, 0.0814655, -0.0481727, , , , , , , , , , , , , , , , , , , , , , 
0.081931, -0.0112459, 0.0913846, -0.0075532, 2.376, 4.5121951, 2.376, -4.6951222, 2.376, -4.0243902, 0.081931, -0.0068818, 0.081931, 0.0302129, 0.081931, -0.0068818, 0.081931, -0.0082246, 0.081931, -0.0031891, 0.081931, -0.0357519, , , , , , , , , , , , , , , , , , , , , , 
0.0823966, -0.005539, 0.0919038, -0.0001678, 2.3895, 5.1219511, 2.3895, 0.6097561, 2.3895, -5.0609756, 0.0823966, -0.0075532, 0.0823966, 0.0323949, 0.0823966, 0.0011749, 0.0823966, 0.0095674, 0.0823966, -0.0048676, 0.0823966, -0.0184634, , , , , , , , , , , , , , , , , , , , , , 
0.0828621, -0.0065461, 0.0924231, 0.0038605, 2.403, 5.1829271, 2.403, 3.9024391, 2.403, -4.6341462, 0.0828621, -0.0099031, 0.0828621, 0.0307164, 0.0828621, 0.0041962, 0.0828621, 0.0139315, 0.0828621, -0.0068818, 0.0828621, -0.0199741, , , , , , , , , , , , , , , , , , , , , , 
0.0833276, -0.0095674, 0.0929423, 0.0058747, 2.4165, 5.9146342, 2.4165, -2.804878, 2.4165, -3.1707318, 0.0833276, -0.0129244, 0.0833276, 0.0280308, 0.0833276, -0.0010071, 0.0833276, 0.0117494, 0.0833276, -0.0072175, 0.0833276, -0.036759, , , , , , , , , , , , , , , , , , , , , , 
0.0837931, -0.0105745, 0.0934615, 0.0038605, 2.43, 7.1951222, 2.43, -1.402439, 2.43, -2.0731707, 0.0837931, -0.0135958, 0.0837931, 0.0273594, 0.0837931, -0.0115816, 0.0837931, 0.0052033, 0.0837931, -0.0068818, 0.0837931, -0.0370947, , , , , , , , , , , , , , , , , , , , , , 
0.0842586, -0.008896, 0.0939808, -0.0035248, 2.4435, 6.0365853, 2.4435, -0.1219512, 2.4435, -0.4268293, 0.0842586, -0.0129244, 0.0842586, 0.026688, 0.0842586, -0.0216526, 0.0842586, -0.0095674, 0.0842586, -0.0058747, 0.0842586, 0.0023499, , , , , , , , , , , , , , , , , , , , , , 
0.0847241, -0.0095674, 0.0945, -0.0097353, 2.457, 10.2439022, 2.457, 3.6585367, 2.457, -1.8902439, 0.0847241, -0.0125887, 0.0847241, 0.0246738, 0.0847241, -0.0270237, 0.0847241, -0.0298772, 0.0847241, -0.005539, 0.0847241, 0.0605936, , , , , , , , , , , , , , , , , , , , , , 
0.0851897, -0.0139315, 0.0950192, -0.012253, 2.4705, 8.5365858, 2.4705, 12.6829271, 2.4705, -2.1341465, 0.0851897, -0.0135958, 0.0851897, 0.0213169, 0.0851897, -0.0293736, 0.0851897, -0.0451514, 0.0851897, -0.0058747, 0.0851897, 0.0903029, , , , , , , , , , , , , , , , , , , , , , 
0.0856552, -0.0169528, 0.0955385, -0.0127565, 2.484, 9.0243902, 2.484, 7.8658538, 2.484, -1.5243902, 0.0856552, -0.0119173, 0.0856552, 0.0193027, 0.0856552, -0.0323949, 0.0856552, -0.0505226, 0.0856552, -0.0068818, 0.0856552, 0.0750286, , , , , , , , , , , , , , , , , , , , , , 
0.0861207, -0.0176242, 0.0960577, -0.0109102, 2.4975, 9.8170738, 2.4975, -4.9390244, 2.4975, -0.3658537, 0.0861207, -0.0095674, 0.0861207, 0.0182956, 0.0861207, -0.0377661, 0.0861207, -0.0431373, 0.0861207, -0.0075532, 0.0861207, 0.0431373, , , , , , , , , , , , , , , , , , , , , , 
0.0865862, -0.018967, 0.0965769, -0.0072175, 2.511, 5.7317076, 2.511, -14.1463413, 2.511, 0.2439024, 0.0865862, -0.0095674, 0.0865862, 0.0169528, 0.0865862, -0.0426337, 0.0865862, -0.030045, 0.0865862, -0.0065461, 0.0865862, 0.0223239, , , , , , , , , , , , , , , , , , , , , , 
0.0870517, -0.0206455, 0.0970962, -0.0075532, 2.5245, 11.8292685, 2.5245, -4.0853658, 2.5245, -2.2560976, 0.0870517, -0.0090639, 0.0870517, 0.0159457, 0.0870517, -0.04448, 0.0870517, -0.0142672, 0.0870517, -0.0053712, 0.0870517, 0.0112459, , , , , , , , , , , , , , , , , , , , , , 
0.0875172, -0.0203098, 0.0976154, -0.0109102, 2.538, 11.5853662, 2.538, 3.5365853, 2.538, -2.0731707, 0.0875172, -0.0109102, 0.0875172, 0.0149386, 0.0875172, -0.0426337, 0.0875172, 0.0068818, 0.0875172, -0.0048676, 0.0875172, -0.0001678, , , , , , , , , , , , , , , , , , , , , , 
0.0879828, -0.0176242, 0.0981346, -0.0109102, 2.5515, 15.060976, 2.5515, -0.3658537, 2.5515, -2.804878, 0.0879828, -0.012253, 0.0879828, 0.0149386, 0.0879828, -0.0406195, 0.0879828, 0.0166171, 0.0879828, -0.0046998, 0.0879828, -0.0099031, , , , , , , , , , , , , , , , , , , , , , 
0.0884483, -0.0124208, 0.0986538, -0.0068818, 2.565, 10.3048782, 2.565, 7.5, 2.565, -2.0731707, 0.0884483, -0.0119173, 0.0884483, 0.0152743, 0.0884483, -0.0404517, 0.0884483, -0.0015106, 0.0884483, -0.0043641, 0.0884483, -0.0129244, , , , , , , , , , , , , , , , , , , , , , 
0.0889138, -0.005539, 0.0991731, -0.0028534, 2.5785, 11.7073174, 2.5785, 9.3902445, 2.5785, -1.3414634, 0.0889138, -0.0102388, 0.0889138, 0.0140993, 0.0889138, -0.0417945, 0.0889138, -0.0350805, 0.0889138, -0.0043641, 0.0889138, -0.0028534, , , , , , , , , , , , , , , , , , , , , , 
0.0893793, -0.0015106, 0.0996923, 0.0016785, 2.592, 11.8292685, 2.592, 8.5365858, 2.592, -0.3048781, 0.0893793, -0.0099031, 0.0893793, 0.0125887, 0.0893793, -0.0449836, 0.0893793, -0.0605936, 0.0893793, -0.005539, 0.0893793, 0.0125887, , , , , , , , , , , , , , , , , , , , , , 
0.0898448, -0.0001678, 0.1002115, 0.0068818, 2.6055, 11.5243902, 2.6055, 6.7682929, 2.6055, 0.4268293, 0.0898448, -0.0105745, 0.0898448, 0.0112459, 0.0898448, -0.0471656, 0.0898448, -0.0666361, 0.0898448, -0.0063783, 0.0898448, 0.0206455, , , , , , , , , , , , , , , , , , , , , , 
0.0903103, -0.002182, 0.1007308, 0.0077211, 2.619, 9.3292685, 2.619, -1.6463414, 2.619, 1.1585366, 0.0903103, -0.0109102, 0.0903103, 0.0097353, 0.0903103, -0.04448, 0.0903103, -0.0659648, 0.0903103, -0.0046998, 0.0903103, 0.0199741, , , , , , , , , , , , , , , , , , , , , , 
0.0907759, -0.0068818, 0.10125, -0.0008392, 2.6325, 10.8536587, 2.6325, -0.8536586, 2.6325, 0.3658537, 0.0907759, -0.0099031, 0.0907759, 0.0085603, 0.0907759, -0.0391089, 0.0907759, -0.0679789, 0.0907759, -0.0035248, 0.0907759, 0.0152743, , , , , , , , , , , , , , , , , , , , , , 
0.0912414, -0.0102388, 0.1017692, -0.0162814, 2.646, 11.219512, 2.646, 5.3658538, 2.646, 0.4268293, 0.0912414, -0.0095674, 0.0912414, 0.0078889, 0.0912414, -0.0350805, 0.0912414, -0.056733, 0.0912414, -0.0035248, 0.0912414, 0.0132601, , , , , , , , , , , , , , , , , , , , , , 
0.0917069, -0.0092317, 0.1022885, -0.0325628, 2.6595, 12.2560978, 2.6595, 6.6463418, 2.6595, 0.4268293, 0.0917069, -0.0095674, 0.0917069, 0.0085603, 0.0917069, -0.0327306, 0.0917069, -0.0139315, 0.0917069, -0.0041962, 0.0917069, 0.0075532, , , , , , , , , , , , , , , , , , , , , , 
0.0921724, -0.0052033, 0.1028077, -0.0386053, 2.673, 12.7439032, 2.673, 12.8048782, 2.673, 0.7926829, 0.0921724, -0.0112459, 0.0921724, 0.008896, 0.0921724, -0.030045, 0.0921724, 0.0515297, 0.0921724, -0.0041962, 0.0921724, -0.0028534, , , , , , , , , , , , , , , , , , , , , , 
0.0926379, -0.0048676, 0.1033269, -0.0328985, 2.6865, 9.7560978, 2.6865, 18.9634151, 2.6865, 1.7682927, 0.0926379, -0.0125887, 0.0926379, 0.0082246, 0.0926379, -0.0263523, 0.0926379, 0.0911421, 0.0926379, -0.0041962, 0.0926379, -0.0065461, , , , , , , , , , , , , , , , , , , , , , 
0.0931034, -0.0072175, 0.1038462, -0.0229953, 2.7, 11.4634151, 2.7, 18.5365849, 2.7, 1.402439, 0.0931034, -0.0129244, 0.0931034, 0.0078889, 0.0931034, -0.0236667, 0.0931034, 0.0867781, 0.0931034, -0.0052033, 0.0931034, -0.0020142, , , , , , , , , , , , , , , , , , , , , , 
0.093569, -0.0090639, 0.1043654, -0.0132601, 2.7135, 12.1341467, 2.7135, 14.3292685, 2.7135, 1.8902439, 0.093569, -0.0132601, 0.093569, 0.008896, 0.093569, -0.024506, 0.093569, 0.06009, 0.093569, -0.0065461, 0.093569, -0.0018463, , , , , , , , , , , , , , , , , , , , , , 
0.0940345, -0.0062104, 0.1048846, -0.0062104, 2.727, 12.3170738, 2.727, 11.7682934, 2.727, 2.5, 0.0940345, -0.0142672, 0.0940345, 0.0092317, 0.0940345, -0.0276951, 0.0940345, 0.0273594, 0.0940345, -0.0072175, 0.0940345, -0.0115816, , , , , , , , , , , , , , , , , , , , , , 
0.0945, -0.0003357, 0.1054038, -0.0036927, 2.7405, 11.7073174, 2.7405, 11.6463413, 2.7405, 2.6829269, 0.0945, -0.0149386, 0.0945, 0.008896, 0.0945, -0.0276951, 0.0945, -0.0065461, 0.0945, -0.0058747, 0.0945, -0.0216526, , , , , , , , , , , , , , , , , , , , , , 
0.0949655, 0.0023499, 0.1059231, -0.0043641, 2.754, 12.9878054, 2.754, 12.6219511, 2.754, 2.7439024, 0.0949655, -0.01561, 0.0949655, 0.0082246, 0.0949655, -0.0250095, 0.0949655, -0.0310521, 0.0949655, -0.0050355, 0.0949655, -0.026688, , , , , , , , , , , , , , , , , , , , , , 
0.095431, -0.0018463, 0.1064423, -0.0072175, 2.7675, 11.5853662, 2.7675, 14.2073174, 2.7675, 2.6219513, 0.095431, -0.0151064, 0.095431, 0.0082246, 0.095431, -0.0193027, 0.095431, -0.0384375, 0.095431, -0.0041962, 0.095431, -0.0290379, , , , , , , , , , , , , , , , , , , , , , 
0.0958966, -0.0095674, 0.1069615, -0.0095674, 2.781, 12.9268293, 2.781, 14.8170738, 2.781, 2.195122, 0.0958966, -0.0135958, 0.0958966, 0.0095674, 0.0958966, -0.0142672, 0.0958966, -0.0323949, 0.0958966, -0.0035248, 0.0958966, -0.026688, , , , , , , , , , , , , , , , , , , , , , 
0.0963621, -0.0139315, 0.1074808, -0.0119173, 2.7945, 13.7195129, 2.7945, 10.9756098, 2.7945, 2.5609756, 0.0963621, -0.0115816, 0.0963621, 0.0109102, 0.0963621, -0.0095674, 0.0963621, -0.0181277, 0.0963621, -0.0036927, 0.0963621, -0.0176242, , , , , , , , , , , , , , , , , , , , , , 
0.0968276, -0.0142672, 0.108, -0.0139315, 2.808, 13.2317076, 2.808, 9.5121956, 2.808, 2.6829269, 0.0968276, -0.0090639, 0.0968276, 0.0099031, 0.0968276, -0.0052033, 0.0968276, -0.0058747, 0.0968276, -0.0028534, 0.0968276, -0.0095674, , , , , , , , , , , , , , , , , , , , , , 
0.0972931, -0.0191348, 0.1085192, -0.0149386, 2.8215, 14.7560978, 2.8215, 5.609756, 2.8215, 2.6829269, 0.0972931, -0.0075532, 0.0972931, 0.0085603, 0.0972931, 0.0025177, 0.0972931, -0.012253, 0.0972931, -0.0018463, 0.0972931, -0.0270237, , , , , , , , , , , , , , , , , , , , , , 
0.0977586, -0.0290379, 0.1090385, -0.0157778, 2.835, 15.4268293, 2.835, 6.4634147, 2.835, 2.4390244, 0.0977586, -0.0078889, 0.0977586, 0.0085603, 0.0977586, 0.0105745, 0.0977586, -0.0320592, 0.0977586, -0.0015106, 0.0977586, -0.0706645, , , , , , , , , , , , , , , , , , , , , , 
0.0982241, -0.033402, 0.1095577, -0.0169528, 2.8485, 15.3048782, 2.8485, 8.2317076, 2.8485, 2.3780489, 0.0982241, -0.0065461, 0.0982241, 0.008896, 0.0982241, 0.0154421, 0.0982241, -0.0417945, 0.0982241, -0.0010071, 0.0982241, -0.1082628, , , , , , , , , , , , , , , , , , , , , , 
0.0986897, -0.0293736, 0.1100769, -0.0182956, 2.862, 16.7682934, 2.862, 9.3292685, 2.862, 1.9512196, 0.0986897, -0.0048676, 0.0986897, 0.0085603, 0.0986897, 0.0151064, 0.0986897, -0.0377661, 0.0986897, -0.0015106, 0.0986897, -0.1210193, , , , , , , , , , , , , , , , , , , , , , 
0.0991552, -0.0275273, 0.1105962, -0.0196384, 2.8755, 18.3536587, 2.8755, 10.1219511, 2.8755, 1.6463414, 0.0991552, -0.0048676, 0.0991552, 0.0085603, 0.0991552, 0.0065461, 0.0991552, -0.0273594, 0.0991552, -0.0028534, 0.0991552, -0.1384756, , , , , , , , , , , , , , , , , , , , , , 
0.0996207, -0.0250095, 0.1111154, -0.018967, 2.889, 17.9878044, 2.889, 6.890244, 2.889, 2.3780489, 0.0996207, -0.0062104, 0.0996207, 0.0109102, 0.0996207, -0.0109102, 0.0996207, -0.0176242, 0.0996207, -0.0030213, 0.0996207, -0.1740597, , , , , , , , , , , , , , , , , , , , , , 
0.1000862, -0.0005035, 0.1116346, -0.0152743, 2.9025, 17.6829281, 2.9025, 2.8658538, 2.9025, 3.3536587, 0.1000862, -0.0092317, 0.1000862, 0.0105745, 0.1000862, -0.0360876, 0.1000862, -0.01561, 0.1000862, -0.0031891, 0.1000862, -0.1787594, , , , , , , , , , , , , , , , , , , , , , 
0.1005517, 0.0345769, 0.1121538, -0.0097353, 2.916, 17.6829281, 2.916, -0.9756098, 2.916, 3.2926829, 0.1005517, -0.0115816, 0.1005517, 0.0104067, 0.1005517, -0.0569009, 0.1005517, -0.0203098, 0.1005517, -0.0028534, 0.1005517, -0.1263905, , , , , , , , , , , , , , , , , , , , , , 
0.1010172, 0.0454871, 0.1126731, -0.0052033, 2.9295, 18.3536587, 2.9295, -5.1219511, 2.9295, 3.4146342, 0.1010172, -0.0114137, 0.1010172, 0.0105745, 0.1010172, -0.0626078, 0.1010172, -0.0226596, 0.1010172, -0.002182, 0.1010172, -0.082414, , , , , , , , , , , , , , , , , , , , , , 
0.1014828, 0.0360876, 0.1131923, -0.0045319, 2.943, 16.7073174, 2.943, -3.7195122, 2.943, 3.7195122, 0.1014828, -0.0085603, 0.1014828, 0.0105745, 0.1014828, -0.0501869, 0.1014828, -0.0196384, 0.1014828, -0.0018463, 0.1014828, -0.0767071, , , , , , , , , , , , , , , , , , , , , , 
0.1019483, 0.0169528, 0.1137115, -0.0062104, 2.9565, 16.0365849, 2.9565, -4.0853658, 2.9565, 4.2682929, 0.1019483, -0.0062104, 0.1019483, 0.0104067, 0.1019483, -0.0270237, 0.1019483, -0.0176242, 0.1019483, -0.0031891, 0.1019483, -0.0619364, , , , , , , , , , , , , , , , , , , , , , 
0.1024138, -0.0159457, 0.1142308, -0.0095674, 2.97, 17.3780499, 2.97, -7.4390244, 2.97, 4.390244, 0.1024138, -0.005539, 0.1024138, 0.0092317, 0.1024138, -0.0068818, 0.1024138, -0.0223239, 0.1024138, -0.0045319, 0.1024138, -0.0639506, , , , , , , , , , , , , , , , , , , , , , 
0.1028793, -0.0528725, 0.11475, -0.0119173, 2.9835, 18.2317085, 2.9835, -3.2926829, 2.9835, 4.2073174, 0.1028793, -0.0075532, 0.1028793, 0.0090639, 0.1028793, 0.0038605, 0.1028793, -0.0290379, 0.1028793, -0.0048676, 0.1028793, -0.1136339, , , , , , , , , , , , , , , , , , , , , , 
0.1033448, -0.072343, 0.1152692, -0.0142672, 2.997, 18.3536587, 2.997, -0.4268293, 2.997, 4.6341462, 0.1033448, -0.0102388, 0.1033448, 0.0095674, 0.1033448, 0.0036927, 0.1033448, -0.0342412, 0.1033448, -0.0052033, 0.1033448, -0.1346151, , , , , , , , , , , , , , , , , , , , , , 
0.1038103, -0.068986, 0.1157885, -0.0151064, 3.0105, 19.2682934, 3.0105, -1.4634147, 3.0105, 5, 0.1038103, -0.012253, 0.1038103, 0.0102388, 0.1038103, -0.0078889, 0.1038103, -0.0364233, 0.1038103, -0.0045319, 0.1038103, -0.0800641, , , , , , , , , , , , , , , , , , , , , , 
0.1042759, -0.0562295, 0.1163077, -0.0151064, 3.024, 19.5121956, 3.024, -2.0731707, 3.024, 5, 0.1042759, -0.0132601, 0.1042759, 0.0105745, 0.1042759, -0.0303807, 0.1042759, -0.036759, 0.1042759, -0.0048676, 0.1042759, 0.008896, , , , , , , , , , , , , , , , , , , , , , 
0.1047414, -0.0448157, 0.1168269, -0.0149386, 3.0375, 20.1219521, 3.0375, -4.1463413, 3.0375, 5.3048782, 0.1047414, -0.0124208, 0.1047414, 0.0117494, 0.1047414, -0.0533761, 0.1047414, -0.0384375, 0.1047414, -0.005539, 0.1047414, 0.0809033, , , , , , , , , , , , , , , , , , , , , , 
0.1052069, -0.0347448, 0.1173462, -0.01561, 3.051, 20.9146347, 3.051, -4.1463413, 3.051, 5.5487804, 0.1052069, -0.0095674, 0.1052069, 0.0132601, 0.1052069, -0.0693217, 0.1052069, -0.0399481, 0.1052069, -0.0058747, 0.1052069, 0.1116197, , , , , , , , , , , , , , , , , , , , , , 
0.1056724, -0.0240024, 0.1178654, -0.0152743, 3.0645, 21.2195129, 3.0645, 0.7317073, 3.0645, 5.4878049, 0.1056724, -0.0063783, 0.1056724, 0.0132601, 0.1056724, -0.0773785, 0.1056724, -0.0407874, 0.1056724, -0.0058747, 0.1056724, 0.100206, , , , , , , , , , , , , , , , , , , , , , 
0.1061379, -0.0135958, 0.1183846, -0.0135958, 3.078, 21.5853672, 3.078, 3.9024391, 3.078, 5.3658538, 0.1061379, -0.0045319, 0.1061379, 0.0130922, 0.1061379, -0.0835889, 0.1061379, -0.0407874, 0.1061379, -0.0052033, 0.1061379, 0.0864424, , , , , , , , , , , , , , , , , , , , , , 
0.1066034, -0.0075532, 0.1189038, -0.0125887, 3.0915, 22.1951218, 3.0915, 2.2560976, 3.0915, 5.609756, 0.1066034, -0.0035248, 0.1066034, 0.0132601, 0.1066034, -0.0854353, 0.1066034, -0.0417945, 0.1066034, -0.0050355, 0.1066034, 0.1077592, , , , , , , , , , , , , , , , , , , , , , 
0.107069, -0.0068818, 0.1194231, -0.0109102, 3.105, 22.6829281, 3.105, 1.097561, 3.105, 6.1585369, 0.107069, -0.0030213, 0.107069, 0.0132601, 0.107069, -0.079057, 0.107069, -0.0439765, 0.107069, -0.0065461, 0.107069, 0.139147, , , , , , , , , , , , , , , , , , , , , , 
0.1075345, -0.0075532, 0.1199423, -0.008896, 3.1185, 22.2560978, 3.1185, -0.1219512, 3.1185, 7.3170733, 0.1075345, -0.0045319, 0.1075345, 0.012253, 0.1075345, -0.0622721, 0.1075345, -0.0468299, 0.1075345, -0.0068818, 0.1075345, 0.1367971, , , , , , , , , , , , , , , , , , , , , , 
0.108, -0.0078889, 0.1204615, -0.0085603, 3.132, 22.7439022, 3.132, 2.5, 3.132, 7.3170733, 0.108, -0.0092317, 0.108, 0.0112459, 0.108, -0.0377661, 0.108, -0.0528725, 0.108, -0.0058747, 0.108, 0.1129625, , , , , , , , , , , , , , , , , , , , , , 
0.1084655, -0.008896, 0.1209808, -0.0065461, 3.1455, 24.0243912, 3.1455, 1.2195122, 3.1455, 7.0121951, 0.1084655, -0.0135958, 0.1084655, 0.0119173, 0.1084655, -0.01561, 0.1084655, -0.0659648, 0.1084655, -0.005539, 0.1084655, 0.0998703, , , , , , , , , , , , , , , , , , , , , , 
0.108931, -0.0102388, 0.1215, -0.0001678, 3.159, 24.7560978, 3.159, 2.2560976, 3.159, 7.1951222, 0.108931, -0.0162814, 0.108931, 0.0129244, 0.108931, -0.002182, 0.108931, -0.0861067, 0.108931, -0.0052033, 0.108931, 0.0965133, , , , , , , , , , , , , , , , , , , , , , 
0.1093966, -0.011078, 0.1220192, 0.0041962, 3.1725, 24.0243912, 3.1725, 6.6463418, 3.1725, 7.1341467, 0.1093966, -0.0179599, 0.1093966, 0.0130922, 0.1093966, -0.0048676, 0.1093966, -0.1052415, 0.1093966, -0.0038605, 0.1093966, 0.0877852, , , , , , , , , , , , , , , , , , , , , , 
0.1098621, -0.0090639, 0.1225385, 0.0075532, 3.186, 23.9634151, 3.186, 11.5853662, 3.186, 7.3170733, 0.1098621, -0.0203098, 0.1098621, 0.0134279, 0.1098621, -0.0229953, 0.1098621, -0.1132982, 0.1098621, -0.002182, 0.1098621, 0.0760357, , , , , , , , , , , , , , , , , , , , , , 
0.1103276, -0.0082246, 0.1230577, 0.014435, 3.1995, 23.780489, 3.1995, 10.7926836, 3.1995, 7.6219516, 0.1103276, -0.0229953, 0.1103276, 0.0142672, 0.1103276, -0.043473, 0.1103276, -0.1089342, 0.1103276, 0.0003357, 0.1103276, 0.0699931, , , , , , , , , , , , , , , , , , , , , , 
0.1107931, -0.0102388, 0.1235769, 0.0246738, 3.213, 24.5121956, 3.213, 2.3780489, 3.213, 8.4146347, 0.1107931, -0.0253452, 0.1107931, 0.0164492, 0.1107931, -0.0560616, 0.1107931, -0.1005417, 0.1107931, -0.0003357, 0.1107931, 0.0663005, , , , , , , , , , , , , , , , , , , , , , 
0.1112586, -0.0115816, 0.1240962, 0.0253452, 3.2265, 25.3048782, 3.2265, -0.2439024, 3.2265, 8.2317076, 0.1112586, -0.0270237, 0.1112586, 0.017792, 0.1112586, -0.0626078, 0.1112586, -0.0894636, 0.1112586, -0.0023499, 0.1112586, 0.0652934, , , , , , , , , , , , , , , , , , , , , , 
0.1117241, -0.0104067, 0.1246154, 0.0176242, 3.24, 25.9756107, 3.24, 2.5, 3.24, 8.5975609, 0.1117241, -0.0263523, 0.1117241, 0.0172885, 0.1117241, -0.0659648, 0.1117241, -0.0726787, 0.1117241, -0.0025177, 0.1117241, 0.0663005, , , , , , , , , , , , , , , , , , , , , , 
0.1121897, -0.0068818, 0.1251346, 0.0099031, 3.2535, 25.6707325, 3.2535, -1.6463414, 3.2535, 9.0243902, 0.1121897, -0.0250095, 0.1121897, 0.0179599, 0.1121897, -0.0622721, 0.1121897, -0.0498512, 0.1121897, 0.0005035, 0.1121897, 0.061265, , , , , , , , , , , , , , , , , , , , , , 
0.1126552, -0.0025177, 0.1256538, -0.0038605, 3.267, 26.6463413, 3.267, -1.097561, 3.267, 8.3536587, 0.1126552, -0.0238346, 0.1126552, 0.0196384, 0.1126552, -0.0498512, 0.1126552, -0.0065461, 0.1126552, 0.0038605, 0.1126552, 0.0448157, , , , , , , , , , , , , , , , , , , , , , 
0.1131207, -0.0001678, 0.1261731, -0.01561, 3.2805, 25.8536587, 3.2805, 6.5243902, 3.2805, 8.4756098, 0.1131207, -0.0219883, 0.1131207, 0.0208133, 0.1131207, -0.0364233, 0.1131207, 0.0569009, 0.1131207, 0.0058747, 0.1131207, 0.0298772, , , , , , , , , , , , , , , , , , , , , , 
0.1135862, -0.0001678, 0.1266923, -0.0263523, 3.294, 27.1951218, 3.294, 2.5609756, 3.294, 9.1463413, 0.1135862, -0.0213169, 0.1135862, 0.0206455, 0.1135862, -0.0285344, 0.1135862, 0.0871138, 0.1135862, 0.0045319, 0.1135862, 0.0229953, , , , , , , , , , , , , , , , , , , , , , 
0.1140517, -0.0008392, 0.1272115, -0.0475013, 3.3075, 27.8048782, 3.3075, -2.8658538, 3.3075, 9.3292685, 0.1140517, -0.0196384, 0.1140517, 0.0204776, 0.1140517, -0.0248417, 0.1140517, 0.0449836, 0.1140517, 0.002182, 0.1140517, 0.0203098, , , , , , , , , , , , , , , , , , , , , , 
0.1145172, -0.0008392, 0.1277308, -0.0659648, 3.321, 26.4634151, 3.321, -2.0121951, 3.321, 9.8780489, 0.1145172, -0.0186313, 0.1145172, 0.0199741, 0.1145172, -0.0229953, 0.1145172, -0.0265202, 0.1145172, 0.0011749, 0.1145172, 0.0157778, , , , , , , , , , , , , , , , , , , , , , 
0.1149828, -0.0008392, 0.12825, -0.0686503, 3.3345, 26.1585369, 3.3345, -5.609756, 3.3345, 10.060976, 0.1149828, -0.018967, 0.1149828, 0.0206455, 0.1149828, -0.0209812, 0.1149828, -0.0626078, 0.1149828, 0.0025177, 0.1149828, 0.0065461, , , , , , , , , , , , , , , , , , , , , , 
0.1154483, -0.0041962, 0.1287692, -0.0558938, 3.348, 27.0121956, 3.348, -5.9756098, 3.348, 9.2682924, 0.1154483, -0.0181277, 0.1154483, 0.0199741, 0.1154483, -0.0203098, 0.1154483, -0.0525368, 0.1154483, 0.0031891, 0.1154483, -0.008896, , , , , , , , , , , , , , , , , , , , , , 
0.1159138, -0.0083925, 0.1292885, -0.0404517, 3.3615, 26.0975609, 3.3615, -3.4756098, 3.3615, 9.0853662, 0.1159138, -0.0176242, 0.1159138, 0.0196384, 0.1159138, -0.0213169, 0.1159138, -0.0280308, 0.1159138, 0.0025177, 0.1159138, -0.0229953, , , , , , , , , , , , , , , , , , , , , , 
0.1163793, -0.0109102, 0.1298077, -0.0330663, 3.375, 25.2439022, 3.375, -11.280488, 3.375, 9.1463413, 0.1163793, -0.017792, 0.1163793, 0.0206455, 0.1163793, -0.0218204, 0.1163793, -0.0125887, 0.1163793, 0.0025177, 0.1163793, -0.0283665, , , , , , , , , , , , , , , , , , , , , , 
0.1168448, -0.0109102, 0.1303269, -0.0297093, 3.3885, 25.9146347, 3.3885, -16.6463413, 3.3885, 9.3292685, 0.1168448, -0.0182956, 0.1168448, 0.0213169, 0.1168448, -0.023331, 0.1168448, -0.0011749, 0.1168448, 0.0038605, 0.1168448, -0.0290379, , , , , , , , , , , , , , , , , , , , , , 
0.1173103, -0.0099031, 0.1308462, -0.0260166, 3.402, 26.2195129, 3.402, -25.1219521, 3.402, 10.4268293, 0.1173103, -0.0169528, 0.1173103, 0.0206455, 0.1173103, -0.0271916, 0.1173103, 0.0072175, 0.1173103, 0.0048676, 0.1173103, -0.0270237, , , , , , , , , , , , , , , , , , , , , , 
0.1177759, -0.0083925, 0.1313654, -0.0196384, 3.4155, 27.7439022, 3.4155, -27.3780499, 3.4155, 10.7317076, 0.1177759, -0.0149386, 0.1177759, 0.0206455, 0.1177759, -0.0303807, 0.1177759, 0.0070497, 0.1177759, 0.0036927, 0.1177759, -0.0248417, , , , , , , , , , , , , , , , , , , , , , 
0.1182414, -0.0048676, 0.1318846, -0.0105745, 3.429, 27.560976, 3.429, -17.8658543, 3.429, 10.9146347, 0.1182414, -0.0142672, 0.1182414, 0.0204776, 0.1182414, -0.0283665, 0.1182414, -0.0035248, 0.1182414, 0.0025177, 0.1182414, -0.0298772, , , , , , , , , , , , , , , , , , , , , , 
0.1187069, -0.0028534, 0.1324038, -0.0041962, 3.4425, 28.2317085, 3.4425, -15.9756098, 3.4425, 10.4878054, 0.1187069, -0.0129244, 0.1187069, 0.0199741, 0.1187069, -0.0229953, 0.1187069, -0.0142672, 0.1187069, 0.0018463, 0.1187069, -0.0466621, , , , , , , , , , , , , , , , , , , , , , 
0.1191724, -0.0058747, 0.1329231, -0.0015106, 3.456, 28.780489, 3.456, -18.1097565, 3.456, 10.060976, 0.1191724, -0.0112459, 0.1191724, 0.018967, 0.1191724, -0.0182956, 0.1191724, -0.0166171, 0.1191724, 0.0016785, 0.1191724, -0.0736858, , , , , , , , , , , , , , , , , , , , , , 
0.1196379, -0.0129244, 0.1334423, -0.0025177, 3.4695, 29.9390259, 3.4695, -20.8536587, 3.4695, 10.7317076, 0.1196379, -0.0102388, 0.1196379, 0.0182956, 0.1196379, -0.0159457, 0.1196379, -0.0162814, 0.1196379, 0.0023499, 0.1196379, -0.1037308, , , , , , , , , , , , , , , , , , , , , , 
0.1201034, -0.0206455, 0.1339615, -0.005539, 3.483, 33.0487823, 3.483, -22.8658543, 3.483, 11.0365858, 0.1201034, -0.0112459, 0.1201034, 0.0182956, 0.1201034, -0.0157778, 0.1201034, -0.0182956, 0.1201034, 0.002182, 0.1201034, -0.1277333, , , , , , , , , , , , , , , , , , , , , , 
0.120569, -0.0350805, 0.1344808, -0.0072175, 3.4965, 32.3170738, 3.4965, -18.0487804, 3.4965, 10.9146347, 0.120569, -0.012253, 0.120569, 0.0186313, 0.120569, -0.0157778, 0.120569, -0.0209812, 0.120569, 0.0011749, 0.120569, -0.1327687, , , , , , , , , , , , , , , , , , , , , , 
0.1210345, -0.0520333, 0.135, -0.0045319, 3.51, 32.8658562, 3.51, -12.560976, 3.51, 9.8170738, 0.1210345, -0.0134279, 0.1210345, 0.0199741, 0.1210345, -0.0146029, 0.1210345, -0.0229953, 0.1210345, 0.0011749, 0.1210345, -0.1196765, , , , , , , , , , , , , , , , , , , , , , 
0.1215, -0.0599222, 0.1355192, -0.0025177, 3.5235, 35.7317085, 3.5235, -9.8780489, 3.5235, 8.1097565, 0.1215, -0.0135958, 0.1215, 0.021149, 0.1215, -0.011078, 0.1215, -0.0243381, 0.1215, 0.0016785, 0.1215, -0.1012131, , , , , , , , , , , , , , , , , , , , , , 
0.1219655, -0.0488441, 0.1360385, -0.0028534, 3.537, 37.8048782, 3.537, -4.6951222, 3.537, 8.4146347, 0.1219655, -0.0129244, 0.1219655, 0.0196384, 0.1219655, -0.0075532, 0.1219655, -0.0250095, 0.1219655, 0.0011749, 0.1219655, -0.0570687, , , , , , , , , , , , , , , , , , , , , , 
0.122431, -0.023331, 0.1365577, -0.0031891, 3.5505, 37.6829262, 3.5505, -13.2317076, 3.5505, 13.2926836, 0.122431, -0.0129244, 0.122431, 0.0186313, 0.122431, -0.0082246, 0.122431, -0.0270237, 0.122431, -0.0008392, 0.122431, 0.0062104, , , , , , , , , , , , , , , , , , , , , , 
0.1228966, 0.0003357, 0.1370769, -0.0028534, 3.564, 40.5487823, 3.564, -20.5487804, 3.564, 14.5121956, 0.1228966, -0.0135958, 0.1228966, 0.0193027, 0.1228966, -0.0093996, 0.1228966, -0.0280308, 0.1228966, -0.0028534, 0.1228966, 0.0357519, , , , , , , , , , , , , , , , , , , , , , 
0.1233621, 0.0095674, 0.1375962, -0.0041962, 3.5775, 41.8292694, 3.5775, -7.0731707, 3.5775, 14.6951227, 0.1233621, -0.0135958, 0.1233621, 0.0199741, 0.1233621, -0.012253, 0.1233621, -0.0258488, 0.1233621, -0.0041962, 0.1233621, -0.0058747, , , , , , , , , , , , , , , , , , , , , , 
0.1238276, 0.0052033, 0.1381154, -0.0057069, 3.591, 39.7560997, 3.591, 3.9634147, 3.591, 12.8658543, 0.1238276, -0.012253, 0.1238276, 0.0199741, 0.1238276, -0.0182956, 0.1238276, -0.0209812, 0.1238276, -0.0043641, 0.1238276, -0.096849, , , , , , , , , , , , , , , , , , , , , , 
0.1242931, 0.0023499, 0.1386346, -0.0031891, 3.6045, 40.7317085, 3.6045, 10.6707315, 3.6045, 12.2560978, 0.1242931, -0.012253, 0.1242931, 0.0199741, 0.1242931, -0.0283665, 0.1242931, -0.018967, 0.1242931, -0.0041962, 0.1242931, -0.161471, , , , , , , , , , , , , , , , , , , , , , 
0.1247586, 0.0028534, 0.1391538, -0.0005035, 3.618, 38.9024391, 3.618, 23.780489, 3.618, 12.6219511, 0.1247586, -0.0139315, 0.1247586, 0.0206455, 0.1247586, -0.0372625, 0.1247586, -0.0226596, 0.1247586, -0.0052033, 0.1247586, -0.181445, , , , , , , , , , , , , , , , , , , , , , 
0.1252241, -0.0082246, 0.1396731, 0.0003357, 3.6315, 40.4268303, 3.6315, 28.4756107, 3.6315, 11.0975609, 0.1252241, -0.0159457, 0.1252241, 0.0208133, 0.1252241, -0.0387732, 0.1252241, -0.030045, 0.1252241, -0.0048676, 0.1252241, -0.199237, , , , , , , , , , , , , , , , , , , , , , 
0.1256897, -0.0273594, 0.1401923, -0.0008392, 3.645, 42.5, 3.645, 30.1829281, 3.645, 11.6463413, 0.1256897, -0.01561, 0.1256897, 0.0213169, 0.1256897, -0.0315557, 0.1256897, -0.0344091, 0.1256897, -0.0045319, 0.1256897, -0.2140078, , , , , , , , , , , , , , , , , , , , , , 
0.1261552, -0.0320592, 0.1407115, -0.0035248, 3.6585, 42.3170738, 3.6585, 20.4268303, 3.6585, 12.0121956, 0.1261552, -0.014435, 0.1261552, 0.0226596, 0.1261552, -0.0203098, 0.1261552, -0.0332341, 0.1261552, -0.0068818, 0.1261552, -0.2156863, , , , , , , , , , , , , , , , , , , , , , 
0.1266207, -0.0276951, 0.1412308, -0.0077211, 3.672, 45.1219521, 3.672, 14.3902445, 3.672, 11.8292685, 0.1266207, -0.0142672, 0.1266207, 0.0240024, 0.1266207, -0.0146029, 0.1266207, -0.0317235, 0.1266207, -0.008896, 0.1266207, -0.2150149, , , , , , , , , , , , , , , , , , , , , , 
0.1270862, -0.0276951, 0.14175, -0.0109102, 3.6855, 47.0731735, 3.6855, 21.8292694, 3.6855, 10.7926836, 0.1270862, -0.0135958, 0.1270862, 0.0243381, 0.1270862, -0.0152743, 0.1270862, -0.0280308, 0.1270862, -0.0095674, 0.1270862, -0.2136721, , , , , , , , , , , , , , , , , , , , , , 
0.1275517, -0.0320592, 0.1422692, -0.0152743, 3.699, 50.5487823, 3.699, 24.4512196, 3.699, 9.0243902, 0.1275517, -0.0132601, 0.1275517, 0.0240024, 0.1275517, -0.0149386, 0.1275517, -0.0256809, 0.1275517, -0.0095674, 0.1275517, -0.1901732, , , , , , , , , , , , , , , , , , , , , , 
0.1280172, -0.033402, 0.1427885, -0.0199741, 3.7125, 57.0121956, 3.7125, 21.5853672, 3.7125, 7.7439027, 0.1280172, -0.0135958, 0.1280172, 0.0231632, 0.1280172, -0.0135958, 0.1280172, -0.0330663, 0.1280172, -0.0083925, 0.1280172, -0.1426719, , , , , , , , , , , , , , , , , , , , , , 
0.1284828, -0.0263523, 0.1433077, -0.0203098, 3.726, 55.3658562, 3.726, -10.3048782, 3.726, 8.5365858, 0.1284828, -0.0137636, 0.1284828, 0.0223239, 0.1284828, -0.0149386, 0.1284828, -0.047837, 0.1284828, -0.0085603, 0.1284828, -0.0641184, , , , , , , , , , , , , , , , , , , , , , 
0.1289483, -0.0129244, 0.1438269, -0.0159457, 3.7395, 57.3780518, 3.7395, -14.2682934, 3.7395, 9.0243902, 0.1289483, -0.0135958, 0.1289483, 0.0213169, 0.1289483, -0.0201419, 0.1289483, -0.0542153, 0.1289483, -0.0095674, 0.1289483, 0.0636149, , , , , , , , , , , , , , , , , , , , , , 
0.1294138, -0.0052033, 0.1443462, -0.0132601, 3.753, 61.4634171, 3.753, 13.841464, 3.753, 7.6219516, 0.1294138, -0.0129244, 0.1294138, 0.0209812, 0.1294138, -0.0293736, 0.1294138, -0.0491798, 0.1294138, -0.0115816, 0.1294138, 0.1911803, , , , , , , , , , , , , , , , , , , , , , 
0.1298793, -0.0048676, 0.1448654, -0.012253, 3.7665, 61.2804909, 3.7665, 8.5365858, 3.7665, 5.670732, 0.1298793, -0.0129244, 0.1298793, 0.0203098, 0.1298793, -0.0391089, 0.1298793, -0.0426337, 0.1298793, -0.0115816, 0.1298793, 0.2183719, , , , , , , , , , , , , , , , , , , , , , 
0.1303448, -0.0048676, 0.1453846, -0.0099031, 3.78, 74.8170776, 3.78, -6.2195125, 3.78, 5.7317076, 0.1303448, -0.0127565, 0.1303448, 0.0203098, 0.1303448, -0.0485084, 0.1303448, -0.0407874, 0.1303448, -0.0102388, 0.1303448, 0.1341115, , , , , , , , , , , , , , , , , , , , , , 
0.1308103, -0.0025177, 0.1459038, -0.0075532, 3.7935, 74.5731735, 3.7935, -8.0487804, 3.7935, 4.7560978, 0.1308103, -0.0109102, 0.1308103, 0.0213169, 0.1308103, -0.052369, 0.1308103, -0.0404517, 0.1308103, -0.0078889, 0.1308103, 0.040116, , , , , , , , , , , , , , , , , , , , , , 
0.1312759, -0.0008392, 0.1464231, -0.0070497, 3.807, 75.2439041, 3.807, -20.3048782, 3.807, 4.2682929, 0.1312759, -0.0082246, 0.1312759, 0.0209812, 0.1312759, -0.0471656, 0.1312759, -0.0407874, 0.1312759, -0.0078889, 0.1312759, 0.0109102, , , , , , , , , , , , , , , , , , , , , , 
0.1317414, -0.0023499, 0.1469423, -0.0078889, 3.8205, 82.9268341, 3.8205, -28.0487804, 3.8205, 5.4878049, 0.1317414, -0.0075532, 0.1317414, 0.0196384, 0.1317414, -0.0369268, 0.1317414, -0.0406195, 0.1317414, -0.008896, 0.1317414, 0.0206455, , , , , , , , , , , , , , , , , , , , , , 
0.1322069, -0.0057069, 0.1474615, -0.0112459, 3.834, 84.146347, 3.834, -41.5243912, 3.834, 9.2682924, 0.1322069, -0.0085603, 0.1322069, 0.018967, 0.1322069, -0.0256809, 0.1322069, -0.0394446, 0.1322069, -0.0085603, 0.1322069, 0.0240024, , , , , , , , , , , , , , , , , , , , , , 
0.1326724, -0.008896, 0.1479808, -0.0130922, 3.8475, 84.2682953, 3.8475, -57.9878044, 3.8475, 14.0853662, 0.1326724, -0.0095674, 0.1326724, 0.0206455, 0.1326724, -0.0149386, 0.1326724, -0.040116, 0.1326724, -0.0085603, 0.1326724, 0.014435, , , , , , , , , , , , , , , , , , , , , , 
0.1331379, -0.0125887, 0.1485, -0.014435, 3.861, 88.2926865, 3.861, -61.0365868, 3.861, 13.2317076, 0.1331379, -0.0132601, 0.1331379, 0.0213169, 0.1331379, -0.0073854, 0.1331379, -0.0446479, 0.1331379, -0.0082246, 0.1331379, 0.0045319, , , , , , , , , , , , , , , , , , , , , , 
0.1336034, -0.0129244, 0.1490192, -0.0149386, 3.8745, 93.9634171, 3.8745, -66.4024429, 3.8745, 8.719512, 0.1336034, -0.0179599, 0.1336034, 0.0209812, 0.1336034, -0.0063783, 0.1336034, -0.0558938, 0.1336034, -0.0082246, 0.1336034, 0.0146029, , , , , , , , , , , , , , , , , , , , , , 
0.134069, -0.0099031, 0.1495385, -0.0142672, 3.888, 93.2317123, 3.888, -80.2439041, 3.888, 8.4756098, 0.134069, -0.0194705, 0.134069, 0.0213169, 0.134069, -0.0112459, 0.134069, -0.0713359, 0.134069, -0.0078889, 0.134069, 0.0481727, , , , , , , , , , , , , , , , , , , , , , 
0.1345345, -0.0058747, 0.1500577, -0.0139315, 3.9015, 86.7682953, 3.9015, -92.4390259, 3.9015, 12.560976, 0.1345345, -0.0184634, 0.1345345, 0.0218204, 0.1345345, -0.0186313, 0.1345345, -0.085771, 0.1345345, -0.0073854, 0.1345345, 0.0864424, , , , , , , , , , , , , , , , , , , , , , 
0.135, 0.0008392, 0.1505769, -0.0135958, 3.915, 84.2682953, 3.915, -94.7561035, 3.915, 15.7926836, 0.135, -0.0172885, 0.135, 0.0226596, 0.135, -0.0280308, 0.135, -0.0867781, 0.135, -0.0072175, 0.135, 0.1104448, , , , , , , , , , , , , , , , , , , , , , 
0.1354655, 0.0104067, 0.1510962, -0.012253, 3.9285, 86.8292694, 3.9285, -90.9146347, 3.9285, 15.4268293, 0.1354655, -0.0162814, 0.1354655, 0.0234989, 0.1354655, -0.0381018, 0.1354655, -0.0726787, 0.1354655, -0.0068818, 0.1354655, 0.1163195, , , , , , , , , , , , , , , , , , , , , , 
0.135931, 0.0139315, 0.1516154, -0.0105745, 3.942, 90.4268341, 3.942, -86.4634171, 3.942, 13.9634151, 0.135931, -0.0151064, 0.135931, 0.0234989, 0.135931, -0.0454871, 0.135931, -0.0522011, 0.135931, -0.0058747, 0.135931, 0.1092699, , , , , , , , , , , , , , , , , , , , , , 
0.1363966, 0.0072175, 0.1521346, -0.0109102, 3.9555, 93.9634171, 3.9555, -91.7682953, 3.9555, 10.060976, 0.1363966, -0.014435, 0.1363966, 0.0229953, 0.1363966, -0.0449836, 0.1363966, -0.04448, 0.1363966, -0.0058747, 0.1363966, 0.0884565, , , , , , , , , , , , , , , , , , , , , , 
0.1368621, -0.002182, 0.1526538, -0.0129244, 3.969, 92.6219559, 3.969, -89.9390259, 3.969, 11.280488, 0.1368621, -0.0139315, 0.1368621, 0.0240024, 0.1368621, -0.0381018, 0.1368621, -0.0565652, 0.1368621, -0.0075532, 0.1368621, 0.0609293, , , , , , , , , , , , , , , , , , , , , , 
0.1373276, -0.0068818, 0.1531731, -0.0176242, 3.9825, 79.5121994, 3.9825, -112.4390259, 3.9825, 32.4390259, 0.1373276, -0.0129244, 0.1373276, 0.0240024, 0.1373276, -0.0273594, 0.1373276, -0.0592508, 0.1373276, -0.0072175, 0.1373276, 0.0451514, , , , , , , , , , , , , , , , , , , , , , 
0.1377931, -0.0082246, 0.1536923, -0.0213169, 3.996, 61.2195129, 3.996, -185.2439117, 3.996, 50.7926826, 0.1377931, -0.0129244, 0.1377931, 0.0229953, 0.1377931, -0.0146029, 0.1377931, -0.0364233, 0.1377931, -0.0048676, 0.1377931, 0.0454871, , , , , , , , , , , , , , , , , , , , , , 
0.1382586, -0.0082246, 0.1542115, -0.0193027, 4.0095, 30.5487804, 4.0095, -260.3658447, 4.0095, 46.4634171, 0.1382586, -0.0129244, 0.1382586, 0.0226596, 0.1382586, -0.0070497, 0.1382586, -0.0166171, 0.1382586, -0.0045319, 0.1382586, 0.04448, , , , , , , , , , , , , , , , , , , , , , 
0.1387241, -0.0068818, 0.1547308, -0.0159457, 4.023, 6.890244, 4.023, -260.1219482, 4.023, 36.7073174, 0.1387241, -0.0124208, 0.1387241, 0.0240024, 0.1387241, -0.0082246, 0.1387241, -0.0216526, 0.1387241, -0.005539, 0.1387241, 0.0320592, , , , , , , , , , , , , , , , , , , , , , 
0.1391897, -0.002182, 0.15525, -0.0162814, 4.0365, -2.804878, 4.0365, -191.5243988, 4.0365, 42.0731735, 0.1391897, -0.0124208, 0.1391897, 0.0260166, 0.1391897, -0.0130922, 0.1391897, -0.0320592, 0.1391897, -0.0062104, 0.1391897, 0.0216526, , , , , , , , , , , , , , , , , , , , , , 
0.1396552, 0.0043641, 0.1557692, -0.0164492, 4.05, 1.5243902, 4.05, -131.4024353, 4.05, 55.4878044, 0.1396552, -0.0112459, 0.1396552, 0.0263523, 0.1396552, -0.0169528, 0.1396552, -0.0182956, 0.1396552, -0.005539, 0.1396552, 0.0171206, , , , , , , , , , , , , , , , , , , , , , 
0.1401207, 0.0105745, 0.1562885, -0.0139315, 4.0635, 0.5487805, 4.0635, -83.0487823, 4.0635, 68.3536606, 0.1401207, -0.0075532, 0.1401207, 0.0253452, 0.1401207, -0.018967, 0.1401207, 0.0354162, 0.1401207, -0.0030213, 0.1401207, 0.0132601, , , , , , , , , , , , , , , , , , , , , , 
0.1405862, 0.0146029, 0.1568077, -0.0095674, 4.077, -9.1463413, 4.077, -39.5731735, 4.077, 76.8292694, 0.1405862, -0.0048676, 0.1405862, 0.0219883, 0.1405862, -0.0223239, 0.1405862, 0.0871138, 0.1405862, -0.0005035, 0.1405862, 0.0070497, , , , , , , , , , , , , , , , , , , , , , 
0.1410517, 0.0152743, 0.1573269, -0.0099031, 4.0905, -17.9878044, 4.0905, -12.6219511, 4.0905, 80.6097565, 0.1410517, -0.0015106, 0.1410517, 0.018967, 0.1410517, -0.0270237, 0.1410517, 0.093492, 0.1410517, -0.0001678, 0.1410517, -0.0018463, , , , , , , , , , , , , , , , , , , , , , 
0.1415172, 0.0125887, 0.1578462, -0.0104067, 4.104, -21.6463413, 4.104, -6.7073174, 4.104, 81.0365906, 0.1415172, 0.0005035, 0.1415172, 0.0159457, 0.1415172, -0.0290379, 0.1415172, 0.0592508, 0.1415172, -0.0001678, 0.1415172, -0.0124208, , , , , , , , , , , , , , , , , , , , , , 
0.1419828, 0.0070497, 0.1583654, -0.0109102, 4.1175, -33.7195129, 4.1175, -13.4146347, 4.1175, 80.4878082, 0.1419828, 0.0008392, 0.1419828, 0.0119173, 0.1419828, -0.0253452, 0.1419828, 0.005539, 0.1419828, -0.0005035, 0.1419828, -0.0112459, , , , , , , , , , , , , , , , , , , , , , 
0.1424483, 0.0015106, 0.1588846, -0.0117494, 4.131, -51.1585388, 4.131, -42.8658562, 4.131, 78.1707306, 0.1424483, 0.0005035, 0.1424483, 0.0085603, 0.1424483, -0.0162814, 0.1424483, -0.0424659, 0.1424483, -0.0008392, 0.1424483, 0.0048676, , , , , , , , , , , , , , , , , , , , , , 
0.1429138, -0.0038605, 0.1594038, -0.0124208, 4.1445, -63.9634171, 4.1445, -78.4756088, 4.1445, 77.0731735, 0.1429138, -0.0010071, 0.1429138, 0.0065461, 0.1429138, -0.0045319, 0.1429138, -0.0619364, 0.1429138, -0.0008392, 0.1429138, 0.0078889, , , , , , , , , , , , , , , , , , , , , , 
0.1433793, -0.008896, 0.1599231, -0.0135958, 4.158, -70.9146347, 4.158, -97.3780518, 4.158, 77.5609741, 0.1433793, -0.0043641, 0.1433793, 0.0062104, 0.1433793, 0.0112459, 0.1433793, -0.0480049, 0.1433793, -0.0015106, 0.1433793, -0.0149386, , , , , , , , , , , , , , , , , , , , , , 
0.1438448, -0.0149386, 0.1604423, -0.0151064, 4.1715, -75.9756088, 4.1715, -102.2561035, 4.1715, 79.0243912, 0.1438448, -0.0082246, 0.1438448, 0.0065461, 0.1438448, 0.0273594, 0.1438448, -0.0198062, 0.1438448, -0.0031891, 0.1438448, -0.0461585, , , , , , , , , , , , , , , , , , , , , , 
0.1443103, -0.018967, 0.1609615, -0.0162814, 4.185, -79.0243912, 4.185, -108.9024429, 4.185, 80.6097565, 0.1443103, -0.0129244, 0.1443103, 0.0075532, 0.1443103, 0.0357519, 0.1443103, 0.0065461, 0.1443103, -0.0048676, 0.1443103, -0.0679789, , , , , , , , , , , , , , , , , , , , , , 
0.1447759, -0.0223239, 0.1614808, -0.01561, 4.1985, -80.18293, 4.1985, -115.9146347, 4.1985, 81.0365906, 0.1447759, -0.01561, 0.1447759, 0.0078889, 0.1447759, 0.0310521, 0.1447759, 0.021149, 0.1447759, -0.0048676, 0.1447759, -0.0743572, , , , , , , , , , , , , , , , , , , , , , 
0.1452414, -0.0216526, 0.162, -0.0142672, 4.212, -78.9024429, 4.212, -114.6341476, 4.212, 80.18293, 0.1452414, -0.0162814, 0.1452414, 0.0099031, 0.1452414, 0.0152743, 0.1452414, 0.0179599, 0.1452414, -0.0038605, 0.1452414, -0.0720073, , , , , , , , , , , , , , , , , , , , , , 
0.1457069, -0.0179599, 0.1625192, -0.0149386, 4.2255, -79.4512177, 4.2255, -111.9512253, 4.2255, 79.5121994, 0.1457069, -0.01561, 0.1457069, 0.0129244, 0.1457069, 0.0031891, 0.1457069, 0.0045319, 0.1457069, -0.0028534, 0.1457069, -0.0626078, , , , , , , , , , , , , , , , , , , , , , 
0.1461724, -0.0139315, 0.1630385, -0.0176242, 4.239, -83.6585388, 4.239, -111.8902435, 4.239, 79.0853653, 0.1461724, -0.01561, 0.1461724, 0.0152743, 0.1461724, 0.0008392, 0.1461724, -0.0082246, 0.1461724, -0.002182, 0.1461724, -0.0485084, , , , , , , , , , , , , , , , , , , , , , 
0.1466379, -0.0117494, 0.1635577, -0.018967, 4.2525, -86.5853653, 4.2525, -100.9756088, 4.2525, 79.3292694, 0.1466379, -0.0179599, 0.1466379, 0.0179599, 0.1466379, -0.0010071, 0.1466379, -0.0169528, 0.1466379, -0.0018463, 0.1466379, -0.0392767, , , , , , , , , , , , , , , , , , , , , , 
0.1471034, -0.010071, 0.1640769, -0.0176242, 4.266, -81.4024429, 4.266, -79.146347, 4.266, 77.2560959, 0.1471034, -0.0198062, 0.1471034, 0.0199741, 0.1471034, -0.0119173, 0.1471034, -0.023331, 0.1471034, -0.0008392, 0.1471034, -0.036759, , , , , , , , , , , , , , , , , , , , , , 
0.147569, -0.0105745, 0.1645962, -0.0159457, 4.2795, -77.0121994, 4.2795, -68.3536606, 4.2795, 73.7195129, 0.147569, -0.0216526, 0.147569, 0.021149, 0.147569, -0.0310521, 0.147569, -0.0276951, 0.147569, -0.0005035, 0.147569, -0.0360876, , , , , , , , , , , , , , , , , , , , , , 
0.1480345, -0.0142672, 0.1651154, -0.0146029, 4.293, -73.4756088, 4.293, -56.0975609, 4.293, 64.4512177, 0.1480345, -0.0229953, 0.1480345, 0.0216526, 0.1480345, -0.054551, 0.1480345, -0.0297093, 0.1480345, -0.0008392, 0.1480345, -0.0377661, , , , , , , , , , , , , , , , , , , , , , 
0.1485, -0.0179599, 0.1656346, -0.011078, 4.3065, -77.0731735, 4.3065, -61.5853691, 4.3065, 55.7317085, 0.1485, -0.0243381, 0.1485, 0.0206455, 0.1485, -0.0783856, 0.1485, -0.0297093, 0.1485, -0.0015106, 0.1485, -0.0528725, , , , , , , , , , , , , , , , , , , , , , 
0.1489655, -0.0196384, 0.1661538, -0.0085603, 4.32, -76.2195129, 4.32, -78.1707306, 4.32, 44.7560997, 0.1489655, -0.0246738, 0.1489655, 0.0198062, 0.1489655, -0.096849, 0.1489655, -0.0283665, 0.1489655, -0.002182, 0.1489655, -0.0746929, , , , , , , , , , , , , , , , , , , , , , 
0.149431, -0.0162814, 0.1666731, -0.0109102, 4.3335, -60.9146347, 4.3335, -90.6707306, 4.3335, 34.1463432, 0.149431, -0.0226596, 0.149431, 0.0196384, 0.149431, -0.1106126, 0.149431, -0.0303807, 0.149431, -0.0030213, 0.149431, -0.0797284, , , , , , , , , , , , , , , , , , , , , , 
0.1498966, -0.0135958, 0.1671923, -0.0125887, 4.347, -41.6463432, 4.347, -86.2195129, 4.347, 25.9146347, 0.1498966, -0.0196384, 0.1498966, 0.0199741, 0.1498966, -0.1216907, 0.1498966, -0.0344091, 0.1498966, -0.0025177, 0.1498966, -0.0569009, , , , , , , , , , , , , , , , , , , , , , 
0.1503621, -0.01561, 0.1677115, -0.0119173, 4.3605, -24.0853672, 4.3605, -75.4268341, 4.3605, 14.4512196, 0.1503621, -0.0162814, 0.1503621, 0.0206455, 0.1503621, -0.1257191, 0.1503621, -0.0394446, 0.1503621, -0.0028534, 0.1503621, -0.0328985, , , , , , , , , , , , , , , , , , , , , , 
0.1508276, -0.0199741, 0.1682308, -0.0105745, 4.374, -2.0731707, 4.374, -76.5853653, 4.374, 0.3658537, 0.1508276, -0.0132601, 0.1508276, 0.0213169, 0.1508276, -0.1193408, 0.1508276, -0.0426337, 0.1508276, -0.0028534, 0.1508276, -0.0325628, , , , , , , , , , , , , , , , , , , , , , 
0.1512931, -0.0219883, 0.16875, -0.0095674, 4.3875, 18.1097565, 4.3875, -88.8414688, 4.3875, -13.9024391, 0.1512931, -0.012253, 0.1512931, 0.0223239, 0.1512931, -0.100206, 0.1512931, -0.0433051, 0.1512931, -0.002182, 0.1512931, -0.0454871, , , , , , , , , , , , , , , , , , , , , , 
0.1517586, -0.0203098, 0.1692692, -0.008896, 4.401, 39.4512215, 4.401, -88.6585388, 4.401, -29.5121956, 0.1517586, -0.0102388, 0.1517586, 0.0219883, 0.1517586, -0.0757, 0.1517586, -0.0431373, 0.1517586, -0.0018463, 0.1517586, -0.0505226, , , , , , , , , , , , , , , , , , , , , , 
0.1522241, -0.0179599, 0.1697885, -0.010071, 4.4145, 53.841465, 4.4145, -91.5243912, 4.4145, -42.6829262, 0.1522241, -0.0080568, 0.1522241, 0.0206455, 0.1522241, -0.0569009, 0.1522241, -0.0414588, 0.1522241, -0.0016785, 0.1522241, -0.0357519, , , , , , , , , , , , , , , , , , , , , , 
0.1526897, -0.0169528, 0.1703077, -0.0109102, 4.428, 60.0609779, 4.428, -81.9512177, 4.428, -47.6829262, 0.1526897, -0.0075532, 0.1526897, 0.0206455, 0.1526897, -0.0451514, 0.1526897, -0.0396124, 0.1526897, -0.0010071, 0.1526897, -0.012253, , , , , , , , , , , , , , , , , , , , , , 
0.1531552, -0.0142672, 0.1708269, -0.008896, 4.4415, 67.0121994, 4.4415, -50.5487823, 4.4415, -47.5, 0.1531552, -0.008896, 0.1531552, 0.0224918, 0.1531552, -0.0391089, 0.1531552, -0.040116, 0.1531552, -0.0018463, 0.1531552, -0.0045319, , , , , , , , , , , , , , , , , , , , , , 
0.1536207, -0.0082246, 0.1713462, -0.0058747, 4.455, 98.5365906, 4.455, -83.3536606, 4.455, -58.841465, 0.1536207, -0.008896, 0.1536207, 0.0224918, 0.1536207, -0.0404517, 0.1536207, -0.0428016, 0.1536207, -0.0035248, 0.1536207, -0.018967, , , , , , , , , , , , , , , , , , , , , , 
0.1540862, 0.0025177, 0.1718654, -0.005539, 4.4685, 107.3170776, 4.4685, -109.6951218, 4.4685, -57.4390259, 0.1540862, -0.0082246, 0.1540862, 0.021149, 0.1540862, -0.0458228, 0.1540862, -0.0459907, 0.1540862, -0.0031891, 0.1540862, -0.0488441, , , , , , , , , , , , , , , , , , , , , , 
0.1545517, 0.01561, 0.1723846, -0.0072175, 4.482, 55.7317085, 4.482, -125.8536606, 4.482, -22.1341476, 0.1545517, -0.0068818, 0.1545517, 0.0208133, 0.1545517, -0.0532082, 0.1545517, -0.0466621, 0.1545517, -0.0025177, 0.1545517, -0.0924849, , , , , , , , , , , , , , , , , , , , , , 
0.1550172, 0.0130922, 0.1729038, -0.0102388, 4.4955, 4.9390244, 4.4955, -128.6585388, 4.4955, -19.0853672, 0.1550172, -0.0048676, 0.1550172, 0.0209812, 0.1550172, -0.057908, 0.1550172, -0.0468299, 0.1550172, -0.002182, 0.1550172, -0.149218, , , , , , , , , , , , , , , , , , , , , , 
0.1554828, -0.0068818, 0.1734231, -0.0097353, 4.509, 52.6829262, 4.509, -30.060976, 4.509, -60.8536606, 0.1554828, -0.0050355, 0.1554828, 0.0209812, 0.1554828, -0.0525368, 0.1554828, -0.0471656, 0.1554828, -0.0023499, 0.1554828, -0.2123293, , , , , , , , , , , , , , , , , , , , , , 
0.1559483, -0.0243381, 0.1739423, -0.0072175, 4.5225, 74.6951218, 4.5225, -49.0853653, 4.5225, -79.3902435, 0.1559483, -0.0057069, 0.1559483, 0.0206455, 0.1559483, -0.0337377, 0.1559483, -0.0471656, 0.1559483, -0.0028534, 0.1559483, -0.2385138, , , , , , , , , , , , , , , , , , , , , , 
0.1564138, -0.0310521, 0.1744615, -0.0065461, 4.536, 31.4634151, 4.536, 29.6951218, 4.536, -21.0975609, 0.1564138, -0.0062104, 0.1564138, 0.0191348, 0.1564138, -0.0115816, 0.1564138, -0.0464942, 0.1564138, -0.0045319, 0.1564138, -0.1577783, , , , , , , , , , , , , , , , , , , , , , 
0.1568793, -0.0451514, 0.1749808, -0.006714, 4.5495, 17.0121956, 4.5495, 102.6219559, 4.5495, -10.9146347, 0.1568793, -0.0065461, 0.1568793, 0.0176242, 0.1568793, 0.0052033, 0.1568793, -0.0438087, 0.1568793, -0.0045319, 0.1568793, -0.0001678, , , , , , , , , , , , , , , , , , , , , , 
0.1573448, -0.0693217, 0.1755, -0.0080568, 4.563, 14.0243902, 4.563, 8.9634151, 4.563, -52.8658562, 0.1573448, -0.0075532, 0.1573448, 0.0159457, 0.1573448, 0.0140993, 0.1573448, -0.0417945, 0.1573448, -0.0036927, 0.1573448, 0.0904707, , , , , , , , , , , , , , , , , , , , , , 
0.1578103, -0.0788891, 0.1760192, -0.0109102, 4.5765, 44.7560997, 4.5765, -0.8536586, 4.5765, -42.0121956, 0.1578103, -0.0085603, 0.1578103, 0.0139315, 0.1578103, 0.0132601, 0.1578103, -0.0404517, 0.1578103, -0.0035248, 0.1578103, 0.0276951, , , , , , , , , , , , , , , , , , , , , , 
0.1582759, -0.064622, 0.1765385, -0.011078, 4.59, 30.060976, 4.59, -18.9634151, 4.59, -12.4390249, 0.1582759, -0.0099031, 0.1582759, 0.0129244, 0.1582759, 0.0041962, 0.1582759, -0.0377661, 0.1582759, -0.0031891, 0.1582759, -0.1169909, , , , , , , , , , , , , , , , , , , , , , 
0.1587414, -0.0384375, 0.1770577, -0.0099031, 4.6035, 5.609756, 4.6035, -52.3780518, 4.6035, -19.3292694, 0.1587414, -0.0109102, 0.1587414, 0.012253, 0.1587414, -0.0072175, 0.1587414, -0.0357519, 0.1587414, -0.0025177, 0.1587414, -0.2017548, , , , , , , , , , , , , , , , , , , , , , 
0.1592069, -0.0115816, 0.1775769, -0.0112459, 4.617, 16.1585369, 4.617, -58.9024391, 4.617, -25.4878063, 0.1592069, -0.0095674, 0.1592069, 0.0109102, 0.1592069, -0.0176242, 0.1592069, -0.0350805, 0.1592069, -0.0028534, 0.1592069, -0.1901732, , , , , , , , , , , , , , , , , , , , , , 
0.1596724, 0.0102388, 0.1780962, -0.012253, 4.6305, 24.3902435, 4.6305, -29.2682934, 4.6305, -24.0243912, 0.1596724, -0.0068818, 0.1596724, 0.0078889, 0.1596724, -0.030045, 0.1596724, -0.033402, 0.1596724, -0.0035248, 0.1596724, -0.1609674, , , , , , , , , , , , , , , , , , , , , , 
0.1601379, 0.0179599, 0.1786154, -0.0104067, 4.644, 26.2195129, 4.644, -6.4024391, 4.644, -22.9878063, 0.1601379, -0.0062104, 0.1601379, 0.0065461, 0.1601379, -0.0411231, 0.1601379, -0.0327306, 0.1601379, -0.0031891, 0.1601379, -0.1331044, , , , , , , , , , , , , , , , , , , , , , 
0.1606034, 0.0052033, 0.1791346, -0.0092317, 4.6575, 23.1707325, 4.6575, 24.8780499, 4.6575, -21.0975609, 0.1606034, -0.0068818, 0.1606034, 0.0083925, 0.1606034, -0.0448157, 0.1606034, -0.030045, 0.1606034, -0.0028534, 0.1606034, -0.0767071, , , , , , , , , , , , , , , , , , , , , , 
0.161069, -0.0149386, 0.1796538, -0.0092317, 4.671, 21.0365868, 4.671, 30.060976, 4.671, -22.0121956, 0.161069, -0.0075532, 0.161069, 0.011078, 0.161069, -0.0384375, 0.161069, -0.0280308, 0.161069, -0.0031891, 0.161069, -0.0184634, , , , , , , , , , , , , , , , , , , , , , 
0.1615345, -0.0256809, 0.1801731, -0.0097353, 4.6845, 25.1219521, 4.6845, 4.5121951, 4.6845, -23.4756107, 0.1615345, -0.0075532, 0.1615345, 0.0139315, 0.1615345, -0.0243381, 0.1615345, -0.0297093, 0.1615345, -0.005539, 0.1615345, 0.0164492, , , , , , , , , , , , , , , , , , , , , , 
0.162, -0.0276951, 0.1806923, -0.0092317, 4.698, 29.0853672, 4.698, -27.9878063, 4.698, -23.1707325, 0.162, -0.0097353, 0.162, 0.0149386, 0.162, -0.0082246, 0.162, -0.0318914, 0.162, -0.0082246, 0.162, 0.0357519, , , , , , , , , , , , , , , , , , , , , , 
0.1624655, -0.0270237, 0.1812115, -0.0095674, 4.7115, 31.5243912, 4.7115, -35.9146347, 4.7115, -19.3902435, 0.1624655, -0.0127565, 0.1624655, 0.0146029, 0.1624655, 0.0008392, 0.1624655, -0.0323949, 0.1624655, -0.008896, 0.1624655, 0.0458228, , , , , , , , , , , , , , , , , , , , , , 
0.162931, -0.023331, 0.1817308, -0.0102388, 4.725, 29.2073174, 4.725, -34.5731697, 4.725, -18.8414631, 0.162931, -0.0151064, 0.162931, 0.0146029, 0.162931, 0.0011749, 0.162931, -0.0339055, 0.162931, -0.0082246, 0.162931, 0.047837, , , , , , , , , , , , , , , , , , , , , , 
0.1633966, -0.0146029, 0.18225, -0.0099031, 4.7385, 33.7804871, 4.7385, -20.3048782, 4.7385, -21.280489, 0.1633966, -0.0162814, 0.1633966, 0.0154421, 0.1633966, -0.0045319, 0.1633966, -0.0354162, 0.1633966, -0.0060426, 0.1633966, 0.0391089, , , , , , , , , , , , , , , , , , , , , , 
0.1638621, -0.0050355, 0.1827692, -0.0082246, 4.752, 35.6707344, 4.752, 11.0975609, 4.752, -21.3414631, 0.1638621, -0.0162814, 0.1638621, 0.0162814, 0.1638621, -0.0149386, 0.1638621, -0.0370947, 0.1638621, -0.0052033, 0.1638621, 0.0186313, , , , , , , , , , , , , , , , , , , , , , 
0.1643276, 0.0011749, 0.1832885, -0.0068818, 4.7655, 33.4756088, 4.7655, 22.5, 4.7655, -20.2439022, 0.1643276, -0.0149386, 0.1643276, 0.018967, 0.1643276, -0.0261845, 0.1643276, -0.0370947, 0.1643276, -0.0041962, 0.1643276, 0.0226596, , , , , , , , , , , , , , , , , , , , , , 
0.1647931, 0.0045319, 0.1838077, -0.0048676, 4.779, 36.8292694, 4.779, 12.8048782, 4.779, -19.6951218, 0.1647931, -0.0127565, 0.1647931, 0.0213169, 0.1647931, -0.0354162, 0.1647931, -0.0297093, 0.1647931, -0.0035248, 0.1647931, 0.0605936, , , , , , , , , , , , , , , , , , , , , , 
0.1652586, 0.0031891, 0.1843269, -0.0031891, 4.7925, 35.6097565, 4.7925, -0.0609756, 4.7925, -17.8658543, 0.1652586, -0.0102388, 0.1652586, 0.0219883, 0.1652586, -0.0417945, 0.1652586, -0.012253, 0.1652586, -0.0035248, 0.1652586, 0.0743572, , , , , , , , , , , , , , , , , , , , , , 
0.1657241, -0.0008392, 0.1848462, -0.0041962, 4.806, 0, 4.806, 0, 4.806, 0, 0.1657241, -0.0085603, 0.1657241, 0.023331, 0.1657241, -0.0475013, 0.1657241, -0.0073854, 0.1657241, -0.0045319, 0.1657241, 0.040116, , , , , , , , , , , , , , , , , , , , , , 
0.1661897, -0.0062104, 0.1853654, -0.005539, 4.8195, 37.9878044, 4.8195, -13.841464, 4.8195, -15.7317076, 0.1661897, -0.0082246, 0.1661897, 0.0246738, 0.1661897, -0.0522011, 0.1661897, -0.0256809, 0.1661897, -0.0036927, 0.1661897, 0.0276951, , , , , , , , , , , , , , , , , , , , , , 
0.1666552, -0.012253, 0.1858846, -0.0038605, 4.833, 35.7926826, 4.833, 0.2439024, 4.833, -14.8780489, 0.1666552, -0.0082246, 0.1666552, 0.0263523, 0.1666552, -0.0516976, 0.1666552, -0.0488441, 0.1666552, -0.0018463, 0.1666552, 0.0822461, , , , , , , , , , , , , , , , , , , , , , 
0.1671207, -0.0206455, 0.1864038, -0.0062104, 4.8465, 35.6097565, 4.8465, 2.1341465, 4.8465, -15.1219511, 0.1671207, -0.0068818, 0.1671207, 0.0276951, 0.1671207, -0.0458228, 0.1671207, -0.0592508, 0.1671207, -0.0011749, 0.1671207, 0.1460288, , , , , , , , , , , , , , , , , , , , , , 
0.1675862, -0.0297093, 0.1869231, -0.0132601, 4.86, 35.8536606, 4.86, 7.5609756, 4.86, -14.8170738, 0.1675862, -0.0062104, 0.1675862, 0.0240024, 0.1675862, -0.0370947, 0.1675862, -0.0532082, 0.1675862, -0.003357, 0.1675862, 0.1344472, , , , , , , , , , , , , , , , , , , , , , 
0.1680517, -0.0323949, 0.1874423, -0.0216526, 4.8735, 35.7926826, 4.8735, 8.5975609, 4.8735, -14.3902445, 0.1680517, -0.0068818, 0.1680517, 0.0129244, 0.1680517, -0.0263523, 0.1680517, -0.0344091, 0.1680517, -0.005539, 0.1680517, 0.0693217, , , , , , , , , , , , , , , , , , , , , , 
0.1685172, -0.0271916, 0.1879615, -0.026688, 4.887, 38.0487823, 4.887, 5.3658538, 4.887, -14.0853662, 0.1685172, -0.0052033, 0.1685172, 0.0038605, 0.1685172, -0.0159457, 0.1685172, -0.0194705, 0.1685172, -0.0041962, 0.1685172, 0.0293736, , , , , , , , , , , , , , , , , , , , , , 
0.1689828, -0.0193027, 0.1884808, -0.024506, 4.9005, 38.2926826, 4.9005, 0.4878049, 4.9005, -13.1097565, 0.1689828, -0.0035248, 0.1689828, -0.0006714, 0.1689828, -0.0115816, 0.1689828, -0.0119173, 0.1689828, -0.0025177, 0.1689828, 0.043473, , , , , , , , , , , , , , , , , , , , , , 
0.1694483, -0.0109102, 0.189, -0.0169528, 4.914, 38.841465, 4.914, -4.2073174, 4.914, -12.0121956, 0.1694483, -0.0023499, 0.1694483, -0.0038605, 0.1694483, -0.012253, 0.1694483, -0.0102388, 0.1694483, -0.0015106, 0.1694483, 0.0834211, , , , , , , , , , , , , , , , , , , , , , 
0.1699138, -0.0058747, 0.1895192, -0.0124208, 4.9275, 38.9024391, 4.9275, -0.5487805, 4.9275, -12.2560978, 0.1699138, -0.0025177, 0.1699138, -0.0068818, 0.1699138, -0.0135958, 0.1699138, -0.0169528, 0.1699138, -0.0008392, 0.1699138, 0.1126268, , , , , , , , , , , , , , , , , , , , , , 
0.1703793, -0.0028534, 0.1900385, -0.0125887, 4.941, 39.2682953, 4.941, 5.609756, 4.941, -12.0121956, 0.1703793, -0.002182, 0.1703793, -0.0102388, 0.1703793, -0.0146029, 0.1703793, -0.0229953, 0.1703793, -0.0016785, 0.1703793, 0.1159838, , , , , , , , , , , , , , , , , , , , , , 
0.1708448, -0.0011749, 0.1905577, -0.0149386, 4.9545, 39.8170738, 4.9545, 9.6341467, 4.9545, -12.2560978, 0.1708448, -0.0008392, 0.1708448, -0.012253, 0.1708448, -0.0164492, 0.1708448, -0.0072175, 0.1708448, -0.003357, 0.1708448, 0.0991989, , , , , , , , , , , , , , , , , , , , , , 
0.1713103, -0.0015106, 0.1910769, -0.0164492, 4.968, 40.3048782, 4.968, 9.9390249, 4.968, -12.0121956, 0.1713103, 0.0015106, 0.1713103, -0.0115816, 0.1713103, -0.0182956, 0.1713103, 0.0313878, 0.1713103, -0.0031891, 0.1713103, 0.0817426, , , , , , , , , , , , , , , , , , , , , , 
0.1717759, -0.003357, 0.1915962, -0.0149386, 4.9815, 41.2804871, 4.9815, 8.6585369, 4.9815, -11.1585369, 0.1717759, 0.0031891, 0.1717759, -0.0083925, 0.1717759, -0.0193027, 0.1717759, 0.0619364, 0.1717759, -0.0025177, 0.1717759, 0.0679789, , , , , , , , , , , , , , , , , , , , , , 
0.1722414, -0.0075532, 0.1921154, -0.0135958, , , , , , , 0.1722414, 0.0028534, 0.1722414, -0.0048676, 0.1722414, -0.0229953, 0.1722414, 0.0622721, 0.1722414, -0.0028534, 0.1722414, 0.0565652, , , , , , , , , , , , , , , , , , , , , , 
0.1727069, -0.0105745, 0.1926346, -0.0142672, , , , , , , 0.1727069, 0.0031891, 0.1727069, -0.0011749, 0.1727069, -0.0283665, 0.1727069, 0.0495155, 0.1727069, -0.0023499, 0.1727069, 0.0464942, , , , , , , , , , , , , , , , , , , , , , 
0.1731724, -0.0087282, 0.1931538, -0.0135958, , , , , , , 0.1731724, 0.0045319, 0.1731724, 0.0011749, 0.1731724, -0.0310521, 0.1731724, 0.0357519, 0.1731724, -0.002182, 0.1731724, 0.0360876, , , , , , , , , , , , , , , , , , , , , , 
0.1736379, -0.002182, 0.1936731, -0.0115816, , , , , , , 0.1736379, 0.0031891, 0.1736379, 0.0038605, 0.1736379, -0.0310521, 0.1736379, 0.0196384, 0.1736379, -0.0028534, 0.1736379, 0.0280308, , , , , , , , , , , , , , , , , , , , , , 
0.1741034, 0.0023499, 0.1941923, -0.008896, , , , , , , 0.1741034, 0.0015106, 0.1741034, 0.0063783, 0.1741034, -0.0302129, 0.1741034, 0.0139315, 0.1741034, -0.002182, 0.1741034, 0.0213169, , , , , , , , , , , , , , , , , , , , , , 
0.174569, -0.002182, 0.1947115, -0.0058747, , , , , , , 0.174569, 0.0028534, 0.174569, 0.0085603, 0.174569, -0.0293736, 0.174569, 0.0186313, 0.174569, -0.0015106, 0.174569, 0.0105745, , , , , , , , , , , , , , , , , , , , , , 
0.1750345, -0.0105745, 0.1952308, -0.005539, , , , , , , 0.1750345, 0.0041962, 0.1750345, 0.0119173, 0.1750345, -0.026688, 0.1750345, 0.0219883, 0.1750345, -0.0018463, 0.1750345, -0.008896, , , , , , , , , , , , , , , , , , , , , , 
0.1755, -0.0149386, 0.19575, -0.0082246, , , , , , , 0.1755, 0.0048676, 0.1755, 0.0159457, 0.1755, -0.0223239, 0.1755, 0.0231632, 0.1755, -0.0028534, 0.1755, -0.0317235, , , , , , , , , , , , , , , , , , , , , , 
0.1759655, -0.0162814, 0.1962692, -0.011078, , , , , , , 0.1759655, 0.0036927, 0.1759655, 0.0193027, 0.1759655, -0.0184634, 0.1759655, 0.0226596, 0.1759655, -0.002182, 0.1759655, -0.0458228, , , , , , , , , , , , , , , , , , , , , , 
0.176431, -0.0146029, 0.1967885, -0.0129244, , , , , , , 0.176431, 0.0016785, 0.176431, 0.0209812, 0.176431, -0.014435, 0.176431, 0.0179599, 0.176431, -0.0018463, 0.176431, -0.0461585, , , , , , , , , , , , , , , , , , , , , , 
0.1768966, 0.0018463, 0.1973077, -0.0152743, , , , , , , 0.1768966, -0.0015106, 0.1768966, 0.0206455, 0.1768966, -0.005539, 0.1768966, 0.0105745, 0.1768966, -0.0031891, 0.1768966, -0.0379339, , , , , , , , , , , , , , , , , , , , , , 
0.1773621, 0.0293736, 0.1978269, -0.0152743, , , , , , , 0.1773621, -0.0052033, 0.1773621, 0.0213169, 0.1773621, 0.0058747, 0.1773621, -0.0018463, 0.1773621, -0.005539, 0.1773621, -0.0285344, , , , , , , , , , , , , , , , , , , , , , 
0.1778276, 0.030045, 0.1983462, -0.0125887, , , , , , , 0.1778276, -0.0078889, 0.1778276, 0.0203098, 0.1778276, 0.0172885, 0.1778276, -0.0166171, 0.1778276, -0.0050355, 0.1778276, -0.0310521, , , , , , , , , , , , , , , , , , , , , , 
0.1782931, -0.005539, 0.1988654, -0.0085603, , , , , , , 0.1782931, -0.0095674, 0.1782931, 0.0171206, 0.1782931, 0.0250095, 0.1782931, -0.0317235, 0.1782931, -0.0031891, 0.1782931, -0.0599222, , , , , , , , , , , , , , , , , , , , , , 
0.1787586, -0.0537118, 0.1993846, -0.0041962, , , , , , , 0.1787586, -0.0095674, 0.1787586, 0.0151064, 0.1787586, 0.018967, 0.1787586, -0.0438087, 0.1787586, -0.0015106, 0.1787586, -0.1186694, , , , , , , , , , , , , , , , , , , , , , 
0.1792241, -0.0887922, 0.1999038, 0.0001678, , , , , , , 0.1792241, -0.0078889, 0.1792241, 0.01561, 0.1792241, 0.0016785, 0.1792241, -0.0471656, 0.1792241, -0.0008392, 0.1792241, -0.1777523, , , , , , , , , , , , , , , , , , , , , , 
0.1796897, -0.0978561, 0.2004231, 0.0001678, , , , , , , 0.1796897, -0.0058747, 0.1796897, 0.0164492, 0.1796897, -0.0186313, 0.1796897, -0.0370947, 0.1796897, -0.0003357, 0.1796897, -0.1891661, , , , , , , , , , , , , , , , , , , , , , 
0.1801552, -0.0809033, 0.2009423, -0.0028534, , , , , , , 0.1801552, -0.0045319, 0.1801552, 0.0152743, 0.1801552, -0.0337377, 0.1801552, -0.0198062, 0.1801552, -0.0015106, 0.1801552, -0.1378042, , , , , , , , , , , , , , , , , , , , , , 
0.1806207, -0.0527047, 0.2014615, -0.0068818, , , , , , , 0.1806207, -0.0048676, 0.1806207, 0.0130922, 0.1806207, -0.0335698, 0.1806207, -0.0112459, 0.1806207, -0.0018463, 0.1806207, -0.0451514, , , , , , , , , , , , , , , , , , , , , , 
0.1810862, -0.0310521, 0.2019808, -0.0104067, , , , , , , 0.1810862, -0.0068818, 0.1810862, 0.0095674, 0.1810862, -0.0198062, 0.1810862, -0.0142672, 0.1810862, -0.0035248, 0.1810862, 0.0193027, , , , , , , , , , , , , , , , , , , , , , 
0.1815517, -0.0196384, 0.2025, -0.012253, , , , , , , 0.1815517, -0.008896, 0.1815517, 0.0083925, 0.1815517, -0.0075532, 0.1815517, -0.014435, 0.1815517, -0.0045319, 0.1815517, -0.0260166, , , , , , , , , , , , , , , , , , , , , , 
0.1820172, -0.0109102, 0.2030192, -0.0129244, , , , , , , 0.1820172, -0.0112459, 0.1820172, 0.0070497, 0.1820172, -0.0085603, 0.1820172, -0.0062104, 0.1820172, -0.0038605, 0.1820172, -0.13579, , , , , , , , , , , , , , , , , , , , , , 
0.1824828, 0.0038605, 0.2035385, -0.0142672, , , , , , , 0.1824828, -0.0135958, 0.1824828, 0.0045319, 0.1824828, -0.0221561, 0.1824828, 0.0036927, 0.1824828, -0.0031891, 0.1824828, -0.1995727, , , , , , , , , , , , , , , , , , , , , , 
0.1829483, 0.0072175, 0.2040577, -0.0139315, , , , , , , 0.1829483, -0.0130922, 0.1829483, 0.0018463, 0.1829483, -0.0386053, 0.1829483, 0.0058747, 0.1829483, -0.0030213, 0.1829483, -0.1864805, , , , , , , , , , , , , , , , , , , , , , 
0.1834138, -0.0109102, 0.2045769, -0.0092317, , , , , , , 0.1834138, -0.008896, 0.1834138, -0.0001678, 0.1834138, -0.0522011, 0.1834138, -0.0070497, 0.1834138, -0.0030213, 0.1834138, -0.1351186, , , , , , , , , , , , , , , , , , , , , , 
0.1838793, -0.0327306, 0.2050962, -0.0063783, , , , , , , 0.1838793, -0.005539, 0.1838793, 0.0008392, 0.1838793, -0.0632792, 0.1838793, -0.0318914, 0.1838793, -0.003357, 0.1838793, -0.0788891, , , , , , , , , , , , , , , , , , , , , , 
0.1843448, -0.0417945, 0.2056154, -0.0068818, , , , , , , 0.1843448, -0.0041962, 0.1843448, 0.0011749, 0.1843448, -0.0686503, 0.1843448, -0.0491798, 0.1843448, -0.0038605, 0.1843448, -0.0357519, , , , , , , , , , , , , , , , , , , , , , 
0.1848103, -0.0384375, 0.2061346, -0.0072175, , , , , , , 0.1848103, -0.0050355, 0.1848103, -0.0001678, 0.1848103, -0.0639506, 0.1848103, -0.0522011, 0.1848103, -0.0028534, 0.1848103, -0.0099031, , , , , , , , , , , , , , , , , , , , , , 
0.1852759, -0.0298772, 0.2066538, -0.0083925, , , , , , , 0.1852759, -0.006714, 0.1852759, -0.002182, 0.1852759, -0.0525368, 0.1852759, -0.051194, 0.1852759, -0.002182, 0.1852759, -0.0135958, , , , , , , , , , , , , , , , , , , , , , 
0.1857414, -0.018967, 0.2071731, -0.0102388, , , , , , , 0.1857414, -0.0075532, 0.1857414, -0.0028534, 0.1857414, -0.0391089, 0.1857414, -0.0553902, 0.1857414, -0.0025177, 0.1857414, -0.0411231, , , , , , , , , , , , , , , , , , , , , , 
0.1862069, -0.0015106, 0.2076923, -0.0109102, , , , , , , 0.1862069, -0.0092317, 0.1862069, 0.0018463, 0.1862069, -0.0310521, 0.1862069, -0.0639506, 0.1862069, -0.0020142, 0.1862069, -0.0518654, , , , , , , , , , , , , , , , , , , , , , 
0.1866724, 0.0221561, 0.2082115, -0.0109102, , , , , , , 0.1866724, -0.0095674, 0.1866724, 0.0099031, 0.1866724, -0.0270237, 0.1866724, -0.0787213, 0.1866724, -0.0023499, 0.1866724, -0.0273594, , , , , , , , , , , , , , , , , , , , , , 
0.1871379, 0.0350805, 0.2087308, -0.0109102, , , , , , , 0.1871379, -0.0095674, 0.1871379, 0.0166171, 0.1871379, -0.0260166, 0.1871379, -0.0965133, 0.1871379, -0.0023499, 0.1871379, 0.012253, , , , , , , , , , , , , , , , , , , , , , 
0.1876034, 0.0320592, 0.20925, -0.0119173, , , , , , , 0.1876034, -0.0102388, 0.1876034, 0.0199741, 0.1876034, -0.0251774, 0.1876034, -0.1055772, 0.1876034, -0.0028534, 0.1876034, 0.0448157, , , , , , , , , , , , , , , , , , , , , , 
0.188069, 0.0196384, 0.2097692, -0.012253, , , , , , , 0.188069, -0.0109102, 0.188069, 0.0219883, 0.188069, -0.023331, 0.188069, -0.0998703, 0.188069, -0.0028534, 0.188069, 0.0589151, , , , , , , , , , , , , , , , , , , , , , 
0.1885345, -0.0008392, 0.2102885, -0.012253, , , , , , , 0.1885345, -0.0112459, 0.1885345, 0.0246738, 0.1885345, -0.0206455, 0.1885345, -0.093492, 0.1885345, -0.0031891, 0.1885345, 0.0532082, , , , , , , , , , , , , , , , , , , , , , 
0.189, -0.0196384, 0.2108077, -0.0129244, , , , , , , 0.189, -0.0104067, 0.189, 0.026688, 0.189, -0.0182956, 0.189, -0.0856031, 0.189, -0.0031891, 0.189, 0.0394446, , , , , , , , , , , , , , , , , , , , , , 
0.1894655, -0.0297093, 0.2113269, -0.0109102, , , , , , , 0.1894655, -0.008896, 0.1894655, 0.0246738, 0.1894655, -0.0169528, 0.1894655, -0.0619364, 0.1894655, -0.0028534, 0.1894655, 0.026688, , , , , , , , , , , , , , , , , , , , , , 
0.189931, -0.0293736, 0.2118462, -0.0095674, , , , , , , 0.189931, -0.008896, 0.189931, 0.0191348, 0.189931, -0.0159457, 0.189931, -0.027863, 0.189931, -0.0031891, 0.189931, 0.0213169, , , , , , , , , , , , , , , , , , , , , , 
0.1903966, -0.0191348, 0.2123654, -0.0105745, , , , , , , 0.1903966, -0.0095674, 0.1903966, 0.0137636, 0.1903966, -0.0159457, 0.1903966, -0.012253, 0.1903966, -0.0025177, 0.1903966, 0.0213169, , , , , , , , , , , , , , , , , , , , , , 
0.1908621, -0.0043641, 0.2128846, -0.0097353, , , , , , , 0.1908621, -0.010071, 0.1908621, 0.0085603, 0.1908621, -0.0157778, 0.1908621, -0.0236667, 0.1908621, -0.0028534, 0.1908621, 0.0208133, , , , , , , , , , , , , , , , , , , , , , 
0.1913276, -0.0036927, 0.2134038, -0.008896, , , , , , , 0.1913276, -0.0099031, 0.1913276, 0.0030213, 0.1913276, -0.0169528, 0.1913276, -0.0384375, 0.1913276, -0.0041962, 0.1913276, 0.0159457, , , , , , , , , , , , , , , , , , , , , , 
0.1917931, -0.0270237, 0.2139231, -0.0092317, , , , , , , 0.1917931, -0.0090639, 0.1917931, -0.0010071, 0.1917931, -0.0199741, 0.1917931, -0.0421302, 0.1917931, -0.0050355, 0.1917931, 0.0050355, , , , , , , , , , , , , , , , , , , , , , 
0.1922586, -0.0592508, 0.2144423, -0.0082246, , , , , , , 0.1922586, -0.0085603, 0.1922586, -0.002182, 0.1922586, -0.0250095, 0.1922586, -0.0354162, 0.1922586, -0.0052033, 0.1922586, -0.0112459, , , , , , , , , , , , , , , , , , , , , , 
0.1927241, -0.0686503, 0.2149615, -0.0063783, , , , , , , 0.1927241, -0.0072175, 0.1927241, -0.0008392, 0.1927241, -0.0298772, 0.1927241, -0.0077211, 0.1927241, -0.0048676, 0.1927241, -0.01561, , , , , , , , , , , , , , , , , , , , , , 
0.1931897, -0.0384375, 0.2154808, -0.0062104, , , , , , , 0.1931897, -0.0058747, 0.1931897, 0.0018463, 0.1931897, -0.0337377, 0.1931897, 0.036759, 0.1931897, -0.0041962, 0.1931897, 0.0052033, , , , , , , , , , , , , , , , , , , , , , 
0.1936552, 0.0102388, 0.216, -0.0068818, , , , , , , 0.1936552, -0.005539, 0.1936552, 0.0045319, 0.1936552, -0.0350805, 0.1936552, 0.0577401, 0.1936552, -0.0041962, 0.1936552, 0.0364233, , , , , , , , , , , , , , , , , , , , , , 
0.1941207, 0.0441444, 0.2165192, -0.0082246, , , , , , , 0.1941207, -0.0038605, 0.1941207, 0.0072175, 0.1941207, -0.0344091, 0.1941207, 0.0392767, 0.1941207, -0.0045319, 0.1941207, 0.0542153, , , , , , , , , , , , , , , , , , , , , , 
0.1945862, 0.0446479, 0.2170385, -0.0082246, , , , , , , 0.1945862, -0.0035248, 0.1945862, 0.0097353, 0.1945862, -0.0323949, 0.1945862, 0.0142672, 0.1945862, -0.0048676, 0.1945862, 0.0372625, , , , , , , , , , , , , , , , , , , , , , 
0.1950517, 0.0058747, 0.2175577, -0.0104067, , , , , , , 0.1950517, -0.0048676, 0.1950517, 0.0129244, 0.1950517, -0.0290379, 0.1950517, 0.01561, 0.1950517, -0.0052033, 0.1950517, -0.0129244, , , , , , , , , , , , , , , , , , , , , , 
0.1955172, -0.0595865, 0.2180769, -0.0130922, , , , , , , 0.1955172, -0.0075532, 0.1955172, 0.0166171, 0.1955172, -0.0256809, 0.1955172, 0.0209812, 0.1955172, -0.005539, 0.1955172, -0.0621042, , , , , , , , , , , , , , , , , , , , , , 
0.1959828, -0.1119554, 0.2185962, -0.0159457, , , , , , , 0.1959828, -0.0095674, 0.1959828, 0.0193027, 0.1959828, -0.0196384, 0.1959828, 0.0035248, 0.1959828, -0.0058747, 0.1959828, -0.0710002, , , , , , , , , , , , , , , , , , , , , , 
0.1964483, -0.1096056, 0.2191154, -0.0162814, , , , , , , 0.1964483, -0.0099031, 0.1964483, 0.0196384, 0.1964483, -0.012253, 0.1964483, -0.0276951, 0.1964483, -0.0058747, 0.1964483, -0.0426337, , , , , , , , , , , , , , , , , , , , , , 
0.1969138, -0.0574044, 0.2196346, -0.0129244, , , , , , , 0.1969138, -0.008896, 0.1969138, 0.0186313, 0.1969138, -0.0115816, 0.1969138, -0.0448157, 0.1969138, -0.005539, 0.1969138, -0.0139315, , , , , , , , , , , , , , , , , , , , , , 
0.1973793, -0.0048676, 0.2201538, -0.0095674, , , , , , , 0.1973793, -0.0105745, 0.1973793, 0.017792, 0.1973793, -0.0196384, 0.1973793, -0.0350805, 0.1973793, -0.0043641, 0.1973793, -0.0092317, , , , , , , , , , , , , , , , , , , , , , 
0.1978448, 0.0045319, 0.2206731, -0.0085603, , , , , , , 0.1978448, -0.0142672, 0.1978448, 0.0179599, 0.1978448, -0.0283665, 0.1978448, -0.0171206, 0.1978448, -0.0045319, 0.1978448, -0.0213169, , , , , , , , , , , , , , , , , , , , , , 
0.1983103, -0.0204776, 0.2211923, -0.0092317, , , , , , , 0.1983103, -0.01561, 0.1983103, 0.0199741, 0.1983103, -0.0340734, 0.1983103, -0.0186313, 0.1983103, -0.0043641, 0.1983103, -0.0350805, , , , , , , , , , , , , , , , , , , , , , 
0.1987759, -0.0391089, 0.2217115, -0.0124208, , , , , , , 0.1987759, -0.0146029, 0.1987759, 0.0219883, 0.1987759, -0.0458228, 0.1987759, -0.03122, 0.1987759, -0.0035248, 0.1987759, -0.0475013, , , , , , , , , , , , , , , , , , , , , , 
0.1992414, -0.0290379, 0.2222308, -0.0149386, , , , , , , 0.1992414, -0.0129244, 0.1992414, 0.0243381, 0.1992414, -0.0607614, 0.1992414, -0.0360876, 0.1992414, -0.0041962, 0.1992414, -0.0605936, , , , , , , , , , , , , , , , , , , , , , 
0.1997069, -0.0085603, 0.22275, -0.0135958, , , , , , , 0.1997069, -0.0119173, 0.1997069, 0.0273594, 0.1997069, -0.0699931, 0.1997069, -0.0411231, 0.1997069, -0.0043641, 0.1997069, -0.0753643, , , , , , , , , , , , , , , , , , , , , , 
0.2001724, 0.0018463, 0.2232692, -0.0127565, , , , , , , 0.2001724, -0.0102388, 0.2001724, 0.0317235, 0.2001724, -0.0696574, 0.2001724, -0.0569009, 0.2001724, -0.0035248, 0.2001724, -0.084596, , , , , , , , , , , , , , , , , , , , , , 
